Topic:,/fixposition/fpa/corrimu
time,ang_vel_x,ang_vel_y,ang_vel_z,lin_acc_x,lin_acc_y,lin_acc_z
1770803063.1223178,-0.001104,0.000319,0.000462,-0.03041,-0.088024,9.810449
1770803063.12544,0.001293,0.006444,0.000196,0.041415,-0.088024,9.815236
1770803063.1304038,-0.00137,0.008042,0.000196,-0.001681,-0.09401,9.7889
1770803063.135217,-0.000838,0.000851,0.000196,-0.072308,-0.103586,9.800872
1770803063.141065,0.002891,-0.010334,-0.000336,-0.08548,-0.104784,9.820024
1770803063.1454613,0.00369,-0.005008,-0.000869,-0.053155,-0.10239,9.811645
1770803063.1575618,-0.000571,0.005379,0.000995,0.016276,-0.089221,9.808054
1770803063.158304,-0.000838,-0.000214,-0.001402,-0.001679,-0.099995,9.808054
1770803063.1616912,0.000494,-0.002877,-7e-05,-0.063929,-0.08563,9.80566
1770803063.1665673,-0.001903,-0.002345,-7e-05,-0.092659,-0.089221,9.799675
1770803063.1706998,0.00369,-0.008204,-0.000869,-0.042383,-0.092813,9.806856
1770803063.1755009,-0.001637,0.004047,-7e-05,0.023459,-0.08563,9.811645
1770803063.181133,-0.001104,0.005112,-0.000603,0.023459,-0.084433,9.796083
1770803063.1859806,-0.001637,0.001916,-7e-05,-0.036395,-0.092813,9.841573
1770803063.1958559,-0.000838,-0.002877,-7e-05,-0.102236,-0.092812,9.830799
1770803063.19669,0.001293,-0.002078,-0.000603,-0.090265,-0.08563,9.827208
1770803063.211244,-3.9e-05,0.000319,-7e-05,-0.032804,-0.083236,9.798478
1770803063.2198944,0.003157,-0.000747,0.000462,0.017474,-0.08563,9.798477
1770803063.2199502,0.00076,-0.00048,-7e-05,-0.02203,-0.088024,9.799675
1770803063.2201195,-0.001104,-0.004475,-7e-05,-0.059141,-0.098798,9.811645
1770803063.2312367,-0.00137,0.002183,0.000462,-0.06752,-0.097601,9.829602
1770803063.2314744,-0.000838,0.000585,0.000462,-0.020833,-0.089221,9.818828
1770803063.2338645,0.000228,0.003781,-0.000336,0.004306,-0.086827,9.808054
1770803063.2391691,-0.000838,0.002982,-7e-05,-0.03041,-0.079644,9.809251
1770803063.2429404,-3.9e-05,5.2e-05,0.000462,-0.068717,-0.086827,9.806857
1770803063.2532415,0.00076,-0.002611,-7e-05,-0.069914,-0.078447,9.809251
1770803063.2540662,0.001293,-0.003942,0.000196,-0.04717,-0.080842,9.827208
1770803063.258004,-0.000305,0.006444,0.000196,-0.011257,-0.073659,9.794886
1770803063.26362,-0.000838,0.003781,-7e-05,-0.034001,-0.09401,9.808054
1770803063.2681792,0.000228,-0.001013,0.000462,-0.068717,-0.097601,9.810449
1770803063.2717981,0.00076,-0.003942,-0.000336,-0.077097,-0.089221,9.79728
1770803063.2768414,0.00076,0.000585,-7e-05,-0.019636,-0.092812,9.790098
1770803063.2820177,0.002358,-0.00341,0.000196,0.005503,-0.084433,9.800872
1770803063.2871916,0.001825,-0.002078,-0.000603,-0.034001,-0.092813,9.810448
1770803063.292622,-0.000571,-0.003943,-0.000869,-0.073506,-0.110769,9.827207
1770803063.2988942,0.00076,-0.00341,-7e-05,-0.059141,-0.110769,9.828404
1770803063.3028393,0.000228,0.002449,0.000729,-0.012453,-0.095207,9.802068
1770803063.3091483,0.00076,0.005379,0.001261,0.003108,-0.091615,9.79728
1770803063.3217864,-0.000305,0.002982,0.000995,-0.034001,-0.095207,9.80566
1770803063.3226316,-3.9e-05,-0.00048,-7e-05,-0.072308,-0.098798,9.821222
1770803063.322744,-0.000571,0.001916,0.000463,-0.069914,-0.102389,9.818828
1770803063.328475,0.001293,0.001117,0.000196,-0.031607,-0.083236,9.816434
1770803063.3334157,-0.000838,0.002715,-0.000336,-0.018439,-0.089221,9.80566
1770803063.3380046,-0.001104,0.00458,0.000463,-0.031608,-0.090419,9.802068
1770803063.3423967,0.001293,-0.00341,0.000196,-0.066323,-0.098798,9.799674
1770803063.3478107,-0.000305,-0.00048,0.000196,-0.047169,-0.102389,9.821222
1770803063.3553078,0.000228,-0.002078,-0.000869,-0.000482,-0.101192,9.810448
1770803063.357758,-0.003235,0.007775,0.000995,-0.017244,-0.097602,9.816432
1770803063.3631842,0.000228,-0.000214,-7e-05,-0.037592,-0.097601,9.812842
1770803063.371513,0.001026,0.000319,-0.000336,-0.057943,-0.09401,9.815237
1770803063.3730068,-0.000838,-0.002078,-0.000869,-0.053155,-0.086827,9.806857
1770803063.3836606,-0.000571,-0.00341,-0.000603,-0.029213,-0.074856,9.799674
1770803063.3841956,-0.000838,5.2e-05,-0.000336,-0.016045,-0.07725,9.810448
1770803063.3913386,-0.002968,0.003248,-0.000336,-0.041184,-0.09401,9.824813
1770803063.3932838,0.001026,-0.000747,0.000196,-0.055549,-0.09401,9.83439
1770803063.4008486,-0.000305,-0.002611,0.000463,-0.045972,-0.092813,9.823616
1770803063.4033246,0.000228,-0.003144,-0.000603,-0.020833,-0.098798,9.798477
1770803063.4092255,-0.001104,0.004047,0.000196,-0.01006,-0.095207,9.793688
1770803063.417509,-0.001903,0.00458,0.000463,-0.023228,-0.097601,9.798477
1770803063.425212,0.002358,-0.002078,0.000463,-0.048366,-0.095207,9.814039
1770803063.4252715,0.002358,-0.006606,-0.000603,-0.062733,-0.091616,9.821221
1770803063.4283876,-3.9e-05,-0.00048,-7e-05,-0.03041,-0.090418,9.822419
1770803063.439538,0.001293,-0.002078,-0.000869,-0.025622,-0.080842,9.812842
1770803063.4467542,0.002624,-0.001812,-0.000336,-0.020833,-0.091616,9.796083
1770803063.4527442,0.000228,5.2e-05,-7e-05,-0.039987,-0.091616,9.802068
1770803063.459489,-0.000571,5.2e-05,-0.000336,-0.061534,-0.08563,9.799674
1770803063.4596372,-0.000571,-0.000214,0.000196,-0.035198,-0.076053,9.816434
1770803063.4599636,-0.000305,5.2e-05,-0.000869,-0.026818,-0.096404,9.824813
1770803063.4663115,0.000228,-0.001812,-0.000869,-0.045972,-0.088024,9.823616
1770803063.4691794,0.001026,0.001117,0.000729,-0.05914,-0.097601,9.808054
1770803063.4764774,-0.003767,0.002982,0.000995,-0.041184,-0.095207,9.810448
1770803063.4870331,-3.9e-05,-0.003676,-0.000869,-0.025622,-0.092813,9.791294
1770803063.4872496,0.000494,0.001117,-0.000336,-0.012453,-0.091615,9.808054
1770803063.4906392,-0.002436,0.008574,0.001261,-0.024427,-0.10239,9.811644
1770803063.507019,-0.000305,-0.00048,0.000463,-0.03041,-0.107178,9.815237
1770803063.5071895,-0.000305,-0.00048,0.000463,-0.041184,-0.099995,9.830799
1770803063.507201,0.00076,-0.002877,-0.001135,-0.034001,-0.096404,9.821222
1770803063.535228,0.003157,-0.004741,-0.000603,-0.031608,-0.08563,9.792491
1770803063.535302,-0.00137,0.000319,-0.001135,-0.047169,-0.09401,9.791295
1770803063.5355062,-0.001104,0.002183,0.000196,-0.043578,-0.090418,9.802068
1770803063.5355186,-3.9e-05,-0.003144,-0.001135,-0.04717,-0.08563,9.816434
1770803063.5355272,-0.00137,0.000585,-0.001135,-0.034001,-0.092813,9.83439
1770803063.5360734,-0.000305,0.001916,0.000196,-0.016045,-0.086827,9.814039
1770803063.5411859,-0.001104,0.002449,-7e-05,-0.023227,-0.092813,9.812842
1770803063.5445611,-0.003501,0.005112,-0.000336,-0.029213,-0.089222,9.796082
1770803063.5502157,0.001026,-0.001546,0.000196,-0.043578,-0.102389,9.79728
1770803063.555361,0.001559,-0.004475,-7e-05,-0.039987,-0.101193,9.798477
1770803063.5598686,0.003956,-0.004475,-0.000869,-0.029213,-0.085631,9.826009
1770803063.565072,0.000494,-0.001279,0.000729,-0.03879,-0.09401,9.822419
1770803063.5708778,-0.00137,0.000851,-7e-05,-0.049564,-0.099995,9.82601
1770803063.5755134,-0.000571,0.000318,0.000196,-0.050761,-0.09401,9.812842
1770803063.580947,0.001559,-0.005541,-0.000336,-0.043579,-0.095207,9.791294
1770803063.5852673,0.002624,-0.006073,-7e-05,-0.020834,-0.09401,9.793688
1770803063.5914078,0.002092,-0.002345,0.000462,-0.032804,-0.089222,9.809251
1770803063.596066,-3.9e-05,-0.000214,-7e-05,-0.039987,-0.089221,9.820025
1770803063.6007118,-0.001637,0.003248,0.000196,-0.041184,-0.092813,9.821222
1770803063.605604,0.000227,-0.000214,-7e-05,-0.042381,-0.082039,9.818828
1770803063.611205,0.001026,-0.003144,-0.000603,-0.04717,-0.089222,9.806856
1770803063.619072,0.001293,-0.002345,-0.000336,-0.061535,-0.088024,9.785309
1770803063.6208558,-0.000571,-0.001013,0.000196,-0.055549,-0.088024,9.799674
1770803063.6292787,0.002624,-0.005008,-0.001135,-0.026819,-0.08563,9.798476
1770803063.6308398,-0.00137,0.005645,0.000462,-0.016046,-0.077251,9.811644
1770803063.6358662,-0.000571,0.001384,-0.000869,-0.029213,-0.08563,9.821222
1770803063.6415324,-0.000571,-0.002078,-7e-05,-0.050761,-0.096404,9.828404
1770803063.646244,0.001293,-0.001812,-7e-05,-0.047169,-0.088024,9.800871
1770803063.651242,0.000494,-0.000481,-7e-05,-0.031607,-0.089221,9.803265
1770803063.6569288,0.003157,-0.007671,-0.001135,-0.013653,-0.077251,9.793687
1770803063.6613462,0.002092,-0.004209,-0.001934,-0.032805,-0.072462,9.800871
1770803063.6666627,0.000227,-0.000481,-0.000603,-0.078294,-0.071265,9.827207
1770803063.6749072,0.000494,-0.004209,-0.000336,-0.0759,-0.08563,9.821221
1770803063.6760511,0.001293,-0.001279,-7e-05,-0.039987,-0.088024,9.816433
1770803063.681594,0.001293,-0.001279,-0.001135,-0.019636,-0.097601,9.800871
1770803063.6869636,-0.000305,0.001916,-0.000603,-0.014848,-0.103587,9.792491
1770803063.6926498,-0.001104,0.002449,0.000729,-0.025622,-0.098798,9.796082
1770803063.696617,0.001026,-0.003943,-7e-05,-0.037593,-0.101193,9.81763
1770803063.7018838,-0.002436,0.003514,-0.000336,-0.048367,-0.090419,9.82601
1770803063.707099,-0.002702,0.004313,0.000729,-0.049564,-0.089222,9.80925
1770803063.7121468,-0.001903,0.005378,0.000995,-0.034002,-0.078448,9.80925
1770803063.7175815,0.001825,-0.00341,-0.001135,-0.048367,-0.079645,9.794885
1770803063.7225544,-0.000571,0.000585,0.000196,-0.047169,-0.089221,9.798477
1770803063.7322147,-0.004833,0.005112,-0.000336,-0.031608,-0.089222,9.812841
1770803063.732544,0.001293,-0.004742,-0.000603,-0.000483,-0.090419,9.816433
1770803063.7381625,-0.000571,0.001384,0.000729,0.003109,-0.098798,9.822419
1770803063.7422192,0.001293,-0.000747,-7e-05,-0.03879,-0.098798,9.82601
1770803063.7471924,0.001026,-0.00341,-7e-05,-0.071112,-0.098798,9.805659
1770803063.7526407,0.000227,-0.002345,0.000196,-0.068717,-0.101192,9.800871
1770803063.757214,-0.000838,0.000851,-0.000336,-0.028016,-0.084433,9.794886
1770803063.7627897,0.002891,-0.004209,-0.000869,-0.012454,-0.080842,9.793688
1770803063.7686877,-0.000571,5.2e-05,-0.000603,-0.026819,-0.091616,9.820025
1770803063.7760863,0.001825,-0.003943,-7e-05,-0.061535,-0.099996,9.820024
1770803063.7773786,-0.001637,-0.000747,0.000196,-0.068717,-0.104784,9.823616
1770803063.782808,0.002891,-0.005274,-0.000869,-0.025622,-0.111967,9.812841
1770803063.787942,-0.000838,0.002449,-0.000603,0.005503,-0.086827,9.802068
1770803063.793377,-0.000571,0.003248,0.000462,-0.014848,-0.090419,9.787703
1770803063.798253,-0.000305,-0.000747,0.000196,-0.054352,-0.090419,9.798477
1770803063.803393,-0.00137,-0.000481,-0.000603,-0.06752,-0.092813,9.823616
1770803063.8078341,-0.00137,-0.001013,-0.000603,-0.056746,-0.083236,9.820025
1770803063.8131552,-0.001637,0.000318,-0.001402,-0.023227,-0.079645,9.821222
1770803063.82135,-0.002169,0.004579,0.000729,-0.028016,-0.078448,9.800871
1770803063.823829,-0.000305,0.001117,-0.000336,-0.043578,-0.098798,9.792491
1770803063.83342,-0.000305,0.000318,0.000729,-0.043578,-0.104784,9.803265
1770803063.8348653,0.000494,-0.005807,-0.000603,-0.022031,-0.091616,9.823615
1770803063.8390796,-3.9e-05,0.002183,-0.000336,-0.007665,-0.105981,9.811644
1770803063.8436406,0.001825,-0.002345,-0.000336,-0.036396,-0.104784,9.827207
1770803063.8484006,0.002092,-0.000747,0.000462,-0.054352,-0.083236,9.828404
1770803063.8535087,0.000494,0.001384,0.000729,-0.069914,-0.09401,9.815236
1770803063.8583558,-3.9e-05,-0.000481,-0.000603,-0.039987,-0.084433,9.803265
1770803063.8638482,-0.00137,0.001384,-0.000603,-0.041184,-0.082039,9.796082
1770803063.8692281,-0.001104,0.002715,0.000196,-0.029213,-0.09401,9.806856
1770803063.8732169,-0.001104,0.000585,-7e-05,-0.032804,-0.091616,9.824813
1770803063.8795857,0.001293,5.2e-05,0.000462,-0.028016,-0.101193,9.810447
1770803063.8839293,-0.001903,0.001384,-0.000603,-0.036396,-0.084433,9.80925
1770803063.8894544,-0.001637,0.004846,0.000995,-0.038791,-0.092813,9.808053
1770803063.896326,-3.9e-05,0.000318,-0.000603,-0.043578,-0.098798,9.796082
1770803063.9014664,0.004222,-0.009003,-0.000869,-0.041187,-0.097602,9.800869
1770803063.907419,0.000494,0.002715,-7e-05,-0.005271,-0.082039,9.80087
1770803063.9089484,-0.003235,0.007775,-7e-05,-0.022032,-0.077251,9.817629
1770803063.913925,-0.004034,0.008042,0.000729,-0.063931,-0.074857,9.809249
1770803063.9195938,0.001026,-0.002345,0.000729,-0.06752,-0.088025,9.823615
1770803063.92587,0.000228,0.000318,0.000729,-0.05914,-0.098798,9.81763
1770803063.9358006,-0.000305,-0.003144,-0.000336,-0.004074,-0.111966,9.803265
1770803063.9364195,-0.001637,0.008042,0.000462,0.011486,-0.084434,9.77573
1770803063.9438689,-0.000571,0.00165,0.000462,-0.043578,-0.086827,9.803265
1770803063.9448028,0.002358,-0.004742,0.000196,-0.071112,-0.096405,9.828404
1770803063.949418,0.000228,-0.006872,-0.000603,-0.069916,-0.092813,9.823615
1770803063.9543886,0.000228,0.003781,0.000729,-0.030411,-0.109572,9.811644
1770803063.9595027,0.00076,0.001916,-7e-05,-0.007665,-0.090419,9.793688
1770803063.969198,-3.9e-05,0.005112,0.000196,-0.022031,-0.079645,9.785308
1770803063.969527,-0.000838,-0.001279,-0.000336,-0.068717,-0.103587,9.810447
1770803063.9745166,-0.000305,-0.000747,-0.000336,-0.063929,-0.101193,9.830798
1770803063.9796367,-0.000305,-0.001812,0.000196,-0.006468,-0.095207,9.811644
1770803063.9853225,0.003956,-0.001013,0.000995,0.019868,-0.088025,9.815236
1770803063.990186,0.002891,0.001384,-7e-05,-0.016045,-0.089221,9.811644
1770803063.995584,0.001293,-0.006339,-0.000336,-0.077098,-0.09401,9.805658
1770803064.0032759,-0.000838,5.2e-05,0.000196,-0.079491,-0.08563,9.804462
1770803064.0052683,0.00076,-0.00341,-7e-05,-0.037593,-0.090419,9.797279
1770803064.0153008,0.000494,-0.000481,-0.000603,0.000715,-0.084433,9.810447
1770803064.0157387,-0.000571,0.005112,-7e-05,-0.013651,-0.090419,9.820024
1770803064.0231192,0.00076,-0.002877,-0.000603,-0.049564,-0.104784,9.836783
1770803064.0289695,-0.000571,-0.001013,0.000196,-0.062732,-0.103587,9.821221
1770803064.030226,-0.001104,0.002982,-7e-05,-0.036396,-0.096404,9.803265
1770803064.0454416,-0.00137,0.003781,-7e-05,-0.006468,-0.091616,9.793688
1770803064.0461016,-0.002169,0.005378,0.000995,-0.011257,-0.090419,9.794884
1770803064.046586,-0.001104,0.000585,-0.000336,-0.047169,-0.089222,9.816433
1770803064.0531943,0.000494,-0.003943,-7e-05,-0.073506,-0.091616,9.831995
1770803064.0558853,-0.000305,-0.001279,-0.000869,-0.065126,-0.090419,9.812842
1770803064.0608044,-0.000838,5.2e-05,-0.000336,-0.023227,-0.095207,9.804462
1770803064.069794,-0.002968,0.005645,0.000462,-0.01844,-0.080842,9.803264
1770803064.0711772,0.002624,-0.005274,-0.000336,-0.037594,-0.099996,9.793687
1770803064.0762365,0.001293,-0.002345,-7e-05,-0.032804,-0.097601,9.806856
1770803064.081437,-0.002436,0.005645,0.000729,-0.036397,-0.10239,9.821221
1770803064.0861294,0.002358,-0.002078,-7e-05,-0.024425,-0.103587,9.81763
1770803064.0924037,0.00076,-0.000214,0.000196,-0.039987,-0.089222,9.814039
1770803064.0966682,0.001559,-0.002078,-7e-05,-0.061535,-0.095207,9.812841
1770803064.1026623,-3.9e-05,0.002982,0.000196,-0.065126,-0.078448,9.808053
1770803064.1065037,0.002092,-0.005008,-0.001402,-0.041185,-0.09401,9.802067
1770803064.1130478,-0.002436,0.008042,0.000729,-0.016047,-0.090419,9.800869
1770803064.1211405,-0.000838,0.004047,-0.000336,-0.016045,-0.089222,9.815235
1770803064.121645,-0.000838,0.003248,-0.000336,-0.036396,-0.082039,9.826009
1770803064.1285226,-0.000571,0.000851,0.000729,-0.059141,-0.10239,9.816433
1770803064.1362925,-0.003235,0.001117,-7e-05,-0.041184,-0.096404,9.808053
1770803064.1444325,-0.000305,0.001916,-0.000869,-0.019636,-0.088025,9.80087
1770803064.144483,-0.000305,0.004313,0.000729,-0.014848,-0.082039,9.797279
1770803064.1468062,-0.000838,5.2e-05,-0.000603,-0.049564,-0.099996,9.805659
1770803064.156236,0.002891,-0.005274,-0.000336,-0.077098,-0.092813,9.82122
1770803064.156744,0.001825,-0.005541,0.000196,-0.062733,-0.091616,9.826009
1770803064.161853,0.001559,-0.000747,0.000196,-0.017242,-0.088025,9.802067
1770803064.1671083,-0.000838,0.002449,0.000729,-0.00168,-0.09401,9.798476
1770803064.1754045,0.002891,-0.005807,-0.000603,-0.029214,-0.101193,9.798475
1770803064.176996,0.003423,-0.006606,-0.000869,-0.057945,-0.10239,9.815235
1770803064.1867385,0.001825,-0.000481,0.000463,-0.050761,-0.083236,9.812841
1770803064.1871223,0.004222,-0.007671,0.000196,-0.044777,-0.09042,9.815234
1770803064.1934612,0.001293,-0.002877,-7e-05,-0.023228,-0.080842,9.806856
1770803064.1977265,0.00076,-0.001812,-0.000603,-0.041184,-0.084433,9.823615
1770803064.203086,0.001293,0.000851,0.000196,-0.060338,-0.099996,9.811644
1770803064.207909,0.002358,-0.003943,0.000196,-0.054353,-0.089222,9.815235
1770803064.2147293,-0.000571,0.002449,0.000995,-0.017242,-0.092813,9.799673
1770803064.2173138,0.002624,-0.001279,0.000196,-0.011257,-0.097601,9.818827
1770803064.224331,0.001559,-0.000214,-0.000336,-0.031607,-0.089222,9.80087
1770803064.2315767,0.00076,0.002449,0.000463,-0.055549,-0.090419,9.811644
1770803064.2335122,-0.000571,-0.003144,-0.000603,-0.044776,-0.097601,9.810447
1770803064.2447956,0.001559,-0.003676,0.000196,-0.030411,-0.097602,9.80925
1770803064.245164,-0.003235,0.005911,0.000463,-0.013652,-0.078448,9.803264
1770803064.2476835,0.003423,-0.006872,0.000196,-0.054354,-0.095208,9.806855
1770803064.2564359,0.00076,-0.002611,-0.000336,-0.061535,-0.092813,9.815235
1770803064.2577057,-0.002169,0.002982,0.000463,-0.03879,-0.096404,9.814038
1770803064.265192,0.002624,-0.009269,-0.000869,-0.010062,-0.099996,9.803263
1770803064.2683098,-0.003501,0.009639,0.001528,-0.010063,-0.079646,9.800868
1770803064.2758644,-0.001104,0.002449,0.000729,-0.041184,-0.091616,9.798476
1770803064.2785428,0.000494,-0.001546,-0.000336,-0.062732,-0.086827,9.80087
1770803064.2866688,0.002358,-0.004475,-0.000869,-0.057944,-0.097602,9.803264
1770803064.2885332,0.001293,-0.001812,0.000196,-0.048367,-0.084433,9.80925
1770803064.296877,0.00076,-0.002345,-0.000869,-0.025622,-0.091616,9.812841
1770803064.2985883,-0.000571,0.001117,0.000196,-0.035199,-0.092813,9.811644
1770803064.308676,0.002358,-0.002078,-0.000336,-0.041184,-0.103587,9.80925
1770803064.311664,0.000227,0.000585,0.000463,-0.048367,-0.096404,9.803265
1770803064.3133368,-3.9e-05,5.2e-05,0.000196,-0.023228,-0.091616,9.799673
1770803064.3206022,0.00076,-0.000214,-7e-05,-0.017242,-0.089222,9.808053
1770803064.324042,0.00076,0.001117,0.000729,-0.032804,-0.097601,9.820024
1770803064.3297396,-3.9e-05,0.000851,0.000463,-0.065126,-0.099996,9.815236
1770803064.3408153,0.000227,-0.001013,0.000463,-0.059141,-0.097601,9.806856
1770803064.3475378,-0.000838,5.2e-05,-0.000336,-0.03879,-0.091616,9.804462
1770803064.3489106,-3.9e-05,-0.000481,-0.000603,-0.02203,-0.089222,9.794885
1770803064.349416,0.001026,0.000851,-0.000603,-0.03041,-0.091616,9.792491
1770803064.3549101,0.000494,-0.000214,-7e-05,-0.031607,-0.08563,9.806856
1770803064.3598568,-0.00137,0.005112,0.000463,-0.039988,-0.098799,9.818826
1770803064.3640258,-0.002169,0.003514,0.000463,-0.036396,-0.095207,9.816432
1770803064.371815,0.000227,0.001916,0.000995,-0.023228,-0.077251,9.811644
1770803064.3763218,-0.005631,0.009639,-7e-05,-0.03999,-0.077252,9.810445
1770803064.380963,-0.000571,0.00165,0.000463,-0.059141,-0.088025,9.80925
1770803064.3845918,0.001559,-0.007405,-0.001135,-0.050763,-0.095207,9.809249
1770803064.3938823,0.001026,-0.002877,-7e-05,-0.050761,-0.088025,9.806855
1770803064.3946877,-0.001637,0.004313,0.000995,-0.032805,-0.091616,9.818826
1770803064.4026856,0.000227,0.001916,0.000196,-0.031608,-0.097601,9.817629
1770803064.404757,-0.000305,0.001117,0.000196,-0.050761,-0.095207,9.816432
1770803064.4131358,0.002358,-0.002611,-7e-05,-0.044776,-0.095207,9.808052
1770803064.4144595,-0.000305,-0.00048,-0.000603,-0.041184,-0.083236,9.799673
1770803064.4245844,-0.000838,-0.002877,-0.000603,-0.031608,-0.091616,9.797279
1770803064.4249926,0.001559,-0.00048,0.000463,-0.042381,-0.088025,9.802067
1770803064.4293993,0.002358,-0.002345,-0.000336,-0.057944,-0.089222,9.817629
1770803064.4389489,0.003956,-0.006073,-7e-05,-0.061536,-0.09042,9.818826
1770803064.4411793,0.000227,-0.002078,-0.000336,-0.054352,-0.084433,9.823615
1770803064.4519527,-0.001903,0.001916,-0.000336,-0.016045,-0.076054,9.80087
1770803064.4527087,0.000227,-0.00048,-0.000603,-0.029213,-0.095207,9.805658
1770803064.4553084,-3.9e-05,0.002449,0.000729,-0.035199,-0.086827,9.817629
1770803064.4599102,-0.00137,0.003514,0.000463,-0.045973,-0.11077,9.815235
1770803064.465435,-0.001104,0.000585,-0.000336,-0.035199,-0.086828,9.80925
1770803064.470829,-0.00137,0.001916,-7e-05,-0.022031,-0.080842,9.810447
1770803064.478893,-0.000572,0.001384,-0.000336,-0.03879,-0.076054,9.798476
1770803064.4814653,0.000227,-0.003676,-0.000336,-0.051959,-0.099996,9.820023
1770803064.4927335,0.000494,-0.002877,-7e-05,-0.048367,-0.091616,9.810447
1770803064.4928877,-0.000572,0.002449,0.000196,-0.049564,-0.090419,9.818826
1770803064.49541,0.001559,-0.001013,-0.000336,-0.048367,-0.08563,9.808052
1770803064.5032935,-0.000838,0.000851,-0.000336,-0.037593,-0.095207,9.818826
1770803064.5062027,0.000494,0.000851,-0.000336,-0.042381,-0.091616,9.796082
1770803064.5122027,0.001825,-0.002877,-0.000336,-0.041185,-0.101193,9.808052
1770803064.5177772,-0.001903,0.000851,-0.000603,-0.024425,-0.090419,9.810447
1770803064.5258353,0.000494,0.004846,0.000995,-0.029214,-0.088024,9.809249
1770803064.528013,-0.004833,0.013102,0.001261,-0.050767,-0.092815,9.812838
1770803064.5332468,-0.00137,0.00165,0.000196,-0.073506,-0.092813,9.803264
1770803064.536859,0.000227,-0.002611,0.000196,-0.08428,-0.104784,9.797279
1770803064.54327,0.00076,-0.002078,0.000196,-0.031608,-0.095207,9.810447
1770803064.5512757,0.001026,5.2e-05,0.000196,-0.005271,-0.092813,9.803264
1770803064.5592234,-0.000572,0.004313,-0.000336,-0.006469,-0.077251,9.791293
1770803064.5592902,0.000494,-0.000747,0.000463,-0.055549,-0.101193,9.821221
1770803064.5631974,-0.001104,-0.003943,0.000196,-0.079492,-0.108375,9.822417
1770803064.5664933,-0.001637,-0.000214,0.000196,-0.043578,-0.107178,9.816432
1770803064.5712347,-0.000572,-0.001546,0.000196,0.000714,-0.077251,9.791293
1770803064.581001,-0.002169,0.008574,0.000463,0.012683,-0.076054,9.778124
1770803064.5831122,0.000227,-0.00048,-0.000869,-0.063929,-0.083236,9.812841
1770803064.5881627,0.002092,-0.006339,-0.000336,-0.107026,-0.095208,9.834388
1770803064.5916562,-0.000572,-0.003676,0.000463,-0.059141,-0.103587,9.814038
1770803064.596578,-0.001104,0.001117,-0.000336,0.021065,-0.095207,9.811644
1770803064.6040187,-0.000305,0.004846,-7e-05,0.034232,-0.088025,9.794884
1770803064.6146336,0.00076,-0.000214,-7e-05,-0.037593,-0.076054,9.805658
1770803064.6148157,0.001825,-0.004209,-0.000336,-0.095054,-0.092813,9.824812
1770803064.616931,0.001026,-0.004742,0.000196,-0.095055,-0.101193,9.809249
1770803064.6256385,0.001026,-0.004742,-0.000869,-0.022031,-0.098799,9.806855
1770803064.6268191,-0.002436,0.006444,0.000463,0.018669,-0.084434,9.800869
1770803064.6329706,-0.00137,0.004047,-7e-05,-0.024425,-0.089222,9.80087
1770803064.6381867,0.002358,-0.002877,-7e-05,-0.089069,-0.097602,9.823615
1770803064.6449893,-0.000305,5.2e-05,0.000995,-0.091462,-0.091616,9.814038
1770803064.6557612,0.001559,-0.004475,0.000729,-0.020834,-0.109573,9.809249
1770803064.6558158,-0.002436,0.00964,0.001528,0.031836,-0.08204,9.800868
1770803064.657107,0.000227,0.003781,0.000463,0.01867,-0.083236,9.806855
1770803064.665037,0.000494,5.2e-05,-0.000603,-0.069915,-0.08563,9.817629
1770803064.6685474,0.003423,-0.009003,-0.000603,-0.123787,-0.097602,9.820022
1770803064.6760302,0.001559,-0.003144,0.000196,-0.079492,-0.088025,9.814038
1770803064.6784368,-0.000572,0.002982,0.000196,0.017473,-0.084433,9.79249
1770803064.687197,-0.000305,0.005645,0.000196,0.0474,-0.088025,9.793687
1770803064.687829,0.00076,0.001384,0.000196,-0.019637,-0.089222,9.809249
1770803064.6926124,-0.002702,0.002449,0.000729,-0.091463,-0.096405,9.8296
1770803064.6976717,0.002092,-0.006606,-0.000869,-0.084282,-0.086828,9.829599
1770803064.7083523,0.000227,0.000851,0.000463,-0.029213,-0.098799,9.82122
1770803064.7088435,-0.002702,0.009107,0.000995,0.02585,-0.076054,9.788897
1770803064.713031,-0.004034,0.010439,0.000463,-0.000487,-0.088026,9.798474
1770803064.7194235,-3.9e-05,0.001117,0.000463,-0.090266,-0.08563,9.804461
1770803064.72325,0.000494,-0.002345,0.000196,-0.107025,-0.10239,9.809249
1770803064.729569,-0.000305,-0.004742,-0.000336,-0.045974,-0.095207,9.815235
1770803064.7333806,0.001559,0.001384,-0.000336,0.025853,-0.080842,9.814038
1770803064.740443,-3.9e-05,0.00458,0.000196,0.015079,-0.074857,9.814038
1770803064.7454937,0.001559,-0.002611,-0.000336,-0.053156,-0.096404,9.816432
1770803064.7567558,0.002624,-0.006606,0.000463,-0.103435,-0.086828,9.802066
1770803064.7587695,0.002092,-0.006073,-0.000336,-0.068719,-0.085631,9.817629
1770803064.7588935,0.00076,5.2e-05,-7e-05,-0.00168,-0.074857,9.794884
1770803064.7644205,0.001559,-0.002078,-0.000869,0.005502,-0.080842,9.791293
1770803064.7693093,0.000227,0.001916,0.000196,-0.024425,-0.097601,9.828403
1770803064.773533,-0.002968,0.00165,-7e-05,-0.0759,-0.103587,9.827206
1770803064.7790546,-0.000838,-0.002078,0.000729,-0.061535,-0.096404,9.823615
1770803064.7836444,0.000494,-0.004209,-0.000869,-0.012455,-0.097601,9.793687
1770803064.7924907,0.002092,-0.004742,-0.001135,-0.014849,-0.079645,9.79249
1770803064.7937145,0.001026,0.001117,0.000729,-0.037593,-0.095207,9.806855
1770803064.8000813,0.002891,-0.007937,-0.001135,-0.073508,-0.092814,9.827205
1770803064.8051965,-0.001637,0.002449,0.000463,-0.060338,-0.09401,9.82122
1770803064.8101926,-0.001104,0.003514,-7e-05,-0.022031,-0.088025,9.822417
1770803064.817224,-0.001903,0.00165,-0.000336,-0.007666,-0.091616,9.809249
1770803064.8214328,-0.000838,0.002982,-0.000603,-0.034002,-0.096404,9.815235
1770803064.8252378,-0.002436,0.004313,0.000463,-0.049565,-0.107179,9.811643
1770803064.8293958,-0.000572,5.2e-05,0.000463,-0.059141,-0.089222,9.82122
1770803064.8347538,0.001293,-0.001279,-0.000869,-0.031608,-0.090419,9.828403
1770803064.843481,0.00076,0.007509,0.001528,-0.019639,-0.090418,9.830796
1770803064.8541803,0.001825,0.00165,-0.000336,-0.03879,-0.083236,9.810446
1770803064.857981,0.001026,-0.004742,0.000196,-0.059142,-0.089222,9.800869
1770803064.8582003,-0.000572,-0.001013,0.000463,-0.059141,-0.09401,9.799673
1770803064.8596551,-0.001104,0.002715,-7e-05,-0.025622,-0.084433,9.799673
1770803064.8647137,-0.000305,0.002183,-0.000603,-0.022031,-0.08563,9.806855
1770803064.8697524,0.002358,-0.002877,-7e-05,-0.042382,-0.098799,9.82122
1770803064.8760211,0.002624,-0.001013,-0.000603,-0.067521,-0.084433,9.828403
1770803064.8842895,-3.9e-05,-0.001279,-0.000603,-0.067521,-0.105981,9.805658
1770803064.8874133,0.001559,-0.001546,0.000196,-0.025622,-0.098799,9.799673
1770803064.9217033,-0.000305,0.004313,-7e-05,-0.014849,-0.088025,9.794884
1770803064.9218526,0.000227,-0.000747,-7e-05,-0.034002,-0.101193,9.803264
1770803064.9220707,0.000494,-0.001279,-7e-05,-0.05555,-0.089222,9.803264
1770803064.9220834,-0.00137,-0.000214,-0.000336,-0.063929,-0.099996,9.823615
1770803064.9220915,0.000494,0.001384,-7e-05,-0.039987,-0.099996,9.808052
1770803064.922099,0.001559,0.00165,0.000196,-0.019637,-0.098798,9.805658
1770803064.922106,0.00076,0.000585,-7e-05,-0.036396,-0.089222,9.810446
1770803064.9251788,-0.000305,0.001916,0.000463,-0.053156,-0.101193,9.797278
1770803064.930457,-0.000572,-0.001013,-7e-05,-0.05555,-0.09401,9.796081
1770803064.935663,-0.000838,0.001916,-7e-05,-0.037593,-0.101193,9.810446
1770803064.9435503,0.002358,-0.003942,-0.000869,-0.020834,-0.096405,9.81284
1770803064.945632,0.000494,0.004047,0.000729,-0.036397,-0.09401,9.816432
1770803064.954196,0.00076,-0.000214,0.000196,-0.044776,-0.098799,9.812841
1770803064.9613652,-3.9e-05,-0.00554,-0.001135,-0.060339,-0.097601,9.792489
1770803064.9622104,0.00076,-0.003942,-0.000336,-0.036397,-0.097602,9.804461
1770803064.968882,-0.000305,-0.002345,-0.000336,-0.020834,-0.083236,9.802067
1770803064.9803221,0.002891,-0.002611,-7e-05,-0.017243,-0.078448,9.810446
1770803064.9808695,0.001559,-0.002611,-7e-05,-0.051959,-0.096405,9.826008
1770803064.9813285,0.000494,-0.00341,-0.000869,-0.071112,-0.089222,9.831994
1770803064.9883285,-0.00137,-0.001013,-0.001135,-0.050761,-0.097601,9.816432
1770803064.9911509,0.001825,0.002715,0.000729,-0.030411,-0.08563,9.802067
1770803064.9982302,-0.002436,0.004846,0.000196,-0.019637,-0.072463,9.792489
1770803065.001539,0.003423,-0.005807,0.000196,-0.045974,-0.095208,9.803263
1770803065.0094788,0.004222,-0.011666,-0.000603,-0.055554,-0.113165,9.834386
1770803065.0119438,-0.000305,-0.002877,0.000463,-0.037593,-0.108375,9.827206
1770803065.01862,-0.001637,0.001916,0.000463,-0.011257,-0.088025,9.806855
1770803065.0214174,-0.001903,0.005112,-0.000336,-0.014849,-0.080842,9.787701
1770803065.0290153,-0.003501,0.007775,0.000463,-0.043581,-0.076055,9.79608
1770803065.0317373,-0.001903,-0.000214,0.000463,-0.072309,-0.083236,9.811643
1770803065.0399857,-0.001903,-0.000214,-0.001135,-0.060338,-0.091616,9.810446
1770803065.0416667,0.000227,0.003514,-7e-05,-0.014849,-0.078448,9.823614
1770803065.0469427,-0.000838,0.005112,-0.000336,-0.016046,-0.095207,9.814037
1770803065.0527515,-0.000305,-0.001279,-0.000336,-0.049564,-0.091616,9.827206
1770803065.063395,-0.000572,0.002183,0.000463,-0.053156,-0.099996,9.809249
1770803065.0635343,0.002624,-0.006872,-0.000869,-0.044777,-0.099996,9.799671
1770803065.06866,0.000227,-0.001546,0.000196,-0.019637,-0.105981,9.799672
1770803065.0722294,-0.002169,0.005911,0.000729,-0.008864,-0.099996,9.811643
1770803065.07987,0.000227,0.000319,0.000196,-0.036396,-0.097601,9.827206
1770803065.082596,-0.001104,-0.00048,-0.000603,-0.069915,-0.103587,9.815235
1770803065.0927272,-0.000838,5.2e-05,0.000995,-0.074703,-0.095207,9.820023
1770803065.0932996,-0.000838,-0.001013,-0.000869,-0.037593,-0.08563,9.794884
1770803065.1018717,-0.000572,0.001916,0.000463,-0.025622,-0.091616,9.798475
1770803065.103981,-0.000305,0.001118,0.000196,-0.013651,-0.088025,9.797278
1770803065.1101136,-0.001104,-0.001279,-0.000869,-0.045973,-0.098799,9.826009
1770803065.1122575,0.000227,-0.001546,-0.000603,-0.054353,-0.090419,9.830797
1770803065.1210768,-0.000838,-0.001013,-7e-05,-0.039987,-0.091616,9.82122
1770803065.1306303,0.00076,-0.001812,-0.000336,-0.024425,-0.088025,9.804461
1770803065.1329029,0.00076,0.003248,0.000463,-0.036396,-0.084433,9.79249
1770803065.1332638,0.001026,-0.002078,-0.000336,-0.041185,-0.108375,9.786504
1770803065.1377964,0.001026,-0.000747,0.001528,-0.065127,-0.082039,9.802067
1770803065.1433995,-0.000305,0.002449,-0.000336,-0.05555,-0.082039,9.808052
1770803065.1503649,-0.000305,-0.000214,-0.000336,-0.03879,-0.097601,9.836783
1770803065.155275,-0.001104,-0.000214,-7e-05,-0.030411,-0.096404,9.816432
1770803065.1574075,-0.000305,0.002449,0.000995,-0.025622,-0.098799,9.803264
1770803065.1655352,-0.000305,0.001916,-7e-05,-0.028017,-0.101193,9.809249
1770803065.1682055,-0.002968,0.005645,0.001262,-0.0352,-0.088025,9.800869
1770803065.1751246,-0.002436,0.008042,0.001528,-0.038793,-0.078448,9.803262
1770803065.17781,-0.003501,0.00671,0.001262,-0.041186,-0.086828,9.827205
1770803065.1864176,-0.005099,0.012835,0.001794,-0.04957,-0.096406,9.817626
1770803065.1881537,-0.000305,0.000585,0.000196,-0.060338,-0.090419,9.816432
1770803065.1937532,-0.001104,-0.000747,-0.000336,-0.036396,-0.095207,9.823614
1770803065.1982567,0.000227,0.00165,0.000463,-0.025622,-0.098799,9.781715
1770803065.2064605,-0.000838,-0.000747,-7e-05,-0.023228,-0.083236,9.792489
1770803065.2085752,0.001825,-0.001546,-0.000336,-0.016046,-0.090419,9.822417
1770803065.215279,-0.001104,0.002715,0.000196,-0.031608,-0.101193,9.816431
1770803065.2201533,0.002358,-0.003143,-0.000603,-0.034002,-0.103587,9.814037
1770803065.2266543,0.000494,-0.001546,0.000463,-0.051959,-0.091616,9.814037
1770803065.2291822,-0.001903,-0.001013,-0.000869,-0.050761,-0.090419,9.809249
1770803065.2340589,0.003423,-0.010867,-0.000603,-0.043583,-0.09042,9.798473
1770803065.2390268,0.001825,-0.005008,-0.000603,-0.041186,-0.097602,9.800869
1770803065.2455556,-3.9e-05,-0.000214,-0.000336,-0.019637,-0.08563,9.816431
1770803065.2490838,-0.000305,0.004047,0.000729,-0.029214,-0.091616,9.829599
1770803065.2584507,-0.000838,0.001917,-0.000336,-0.04717,-0.098799,9.814037
1770803065.2702172,-3.9e-05,-0.002345,-0.000603,-0.048367,-0.101193,9.814037
1770803065.2704742,0.001026,-0.005807,-0.000869,-0.036397,-0.091616,9.799671
1770803065.2721317,-3.9e-05,0.004047,0.000463,-0.013652,-0.096404,9.799672
1770803065.2744524,-0.002436,0.005112,0.000196,-0.025623,-0.090419,9.798474
1770803065.2803395,-0.001104,0.003248,0.000729,-0.038791,-0.088025,9.808051
1770803065.284849,0.001559,-0.001279,-7e-05,-0.050762,-0.080842,9.837979
1770803065.2940178,0.000227,0.000319,0.000463,-0.050761,-0.088025,9.822417
1770803065.2941601,-0.000305,0.002715,0.000729,-0.034002,-0.086828,9.809249
1770803065.2998693,0.001026,0.001384,0.000463,-0.053156,-0.090419,9.802066
1770803065.3046787,0.001293,5.2e-05,0.000196,-0.051959,-0.099996,9.803263
1770803065.311614,-3.9e-05,-0.001279,-0.000603,-0.034002,-0.103587,9.814037
1770803065.31592,0.001559,-0.001812,-0.000603,-0.020834,-0.103587,9.820023
1770803065.3228757,-3.9e-05,0.005645,0.000729,-0.018441,-0.105981,9.821219
1770803065.3252704,-0.000572,0.004047,-7e-05,-0.049565,-0.090419,9.817628
1770803065.3351014,0.001559,-0.002611,0.000729,-0.051959,-0.098799,9.818825
1770803065.3352635,0.001825,-0.002877,-7e-05,-0.032805,-0.092813,9.786504
1770803065.3493767,-0.003767,0.002183,-0.000603,-0.041185,-0.066477,9.800869
1770803065.3504941,0.001293,-0.00048,-0.000603,-0.042382,-0.072462,9.802066
1770803065.3508356,-0.000305,0.001917,-7e-05,-0.060338,-0.078448,9.834388
1770803065.35975,0.001026,-0.001013,-0.000336,-0.059141,-0.080842,9.830797
1770803065.3605232,0.000227,0.001384,-7e-05,-0.028017,-0.095207,9.834388
1770803065.371416,0.001559,-0.004475,-0.000603,-0.006469,-0.107178,9.815234
1770803065.371455,-0.006164,0.010705,-7e-05,-0.00767,-0.10718,9.792487
1770803065.3751473,-0.002702,0.004047,0.000463,-0.037594,-0.105982,9.799672
1770803065.380554,-0.002436,-0.000747,-7e-05,-0.057944,-0.115558,9.822417
1770803065.3870554,0.005287,-0.012731,-0.000869,-0.060344,-0.105983,9.834385
1770803065.3985274,0.004755,-0.00554,-7e-05,-0.057945,-0.103588,9.785306
1770803065.3992734,-0.000305,0.001118,0.000463,-0.030411,-0.071265,9.843965
1770803065.4007816,0.000227,0.002183,0.000196,-0.04717,-0.077251,9.790095
1770803065.4066474,-0.001104,-0.00048,-7e-05,-0.056747,-0.082039,9.802066
1770803065.4114017,0.000227,0.001917,0.000196,-0.01844,-0.089222,9.797278
1770803065.4158633,0.00076,-0.001013,-0.000336,-0.01006,-0.082039,9.815234
1770803065.4226224,-0.00137,0.007775,0.001528,-0.017245,-0.092813,9.814036
1770803065.4257088,-0.001637,0.003248,0.000196,-0.029214,-0.097602,9.823614
1770803065.431905,-0.002702,0.006977,0.000196,-0.077099,-0.102391,9.805657
1770803065.4372065,-3.9e-05,-0.007405,-7e-05,-0.061537,-0.098799,9.800868
1770803065.4410298,0.004488,-0.006073,-7e-05,-0.050763,-0.104785,9.792488
1770803065.448574,-0.000572,0.001917,0.000196,-0.028017,-0.095207,9.803263
1770803065.451132,0.000494,0.002183,-0.000336,-0.029214,-0.091616,9.817628
1770803065.4586828,0.001026,0.00165,0.000196,-0.038791,-0.101193,9.828402
1770803065.4624739,-0.001371,0.004313,0.000196,-0.044777,-0.088025,9.835584
1770803065.4756713,0.001026,-0.006872,-0.000336,-0.028018,-0.101193,9.806853
1770803065.4764583,0.001825,-0.001812,-7e-05,-0.016046,-0.084434,9.791292
1770803065.4765997,0.001825,-0.000214,0.001261,-0.02682,-0.083236,9.798475
1770803065.4818633,0.000227,0.002183,-7e-05,-0.048368,-0.09401,9.803263
1770803065.4894319,-0.000305,0.000585,-0.000869,-0.061536,-0.088025,9.829599
1770803065.4914336,0.001825,-0.002877,-0.000336,-0.047171,-0.090419,9.827205
1770803065.497166,-3.9e-05,0.001118,0.000196,-0.039988,-0.090419,9.815234
1770803065.5053823,-0.001371,0.000851,-0.001135,-0.034002,-0.096404,9.799672
1770803065.5073133,0.000494,-0.005008,-7e-05,-0.04358,-0.095207,9.794883
1770803065.538816,0.001026,0.000585,0.000463,-0.042382,-0.095207,9.803263
1770803065.5389347,-0.000305,-0.00048,0.000463,-0.025623,-0.098799,9.808051
1770803065.5396793,0.00076,0.004047,-7e-05,-0.028017,-0.090419,9.821219
1770803065.5396917,0.001559,0.002183,0.000196,-0.023228,-0.096404,9.817628
1770803065.5398452,-0.000572,0.000585,-7e-05,-0.049565,-0.097602,9.818825
1770803065.540948,-0.000305,0.000319,0.000463,-0.050762,-0.089222,9.79608
1770803065.5422118,0.000494,5.2e-05,0.000463,-0.049565,-0.084433,9.805657
1770803065.5484517,-0.001104,0.000851,-0.000336,-0.041185,-0.084433,9.803263
1770803065.57529,0.001026,-0.003942,0.000463,-0.0352,-0.079645,9.805657
1770803065.5753672,0.000227,-0.000214,-0.000869,-0.035199,-0.089222,9.816431
1770803065.575398,0.001559,-0.001013,0.000463,-0.039988,-0.09401,9.817628
1770803065.5756235,0.001026,0.002183,0.000995,-0.037594,-0.095207,9.818825
1770803065.5757036,-0.000305,-0.001546,-0.000603,-0.030411,-0.103587,9.810446
1770803065.5819561,-0.000305,0.001384,-0.000336,-0.023228,-0.095207,9.787701
1770803065.5851853,0.002891,-0.004209,-0.000336,-0.02682,-0.104785,9.808051
1770803065.5939345,0.00076,-0.00341,-0.000336,-0.036397,-0.098799,9.810445
1770803065.5940013,0.001825,-0.004475,-0.000603,-0.044777,-0.103587,9.821219
1770803065.5981863,0.002891,-0.00341,0.000196,-0.032805,-0.094011,9.826008
1770803065.604854,0.002891,-0.008203,-0.001402,-0.030413,-0.084434,9.820021
1770803065.6080158,0.001559,-0.002078,0.000196,-0.035199,-0.085631,9.80446
1770803065.6155152,0.000494,0.001917,0.000196,-0.035199,-0.088025,9.805657
1770803065.618552,0.002092,0.002183,-7e-05,-0.037594,-0.074856,9.802066
1770803065.6258433,-0.000305,0.000851,0.000995,-0.035199,-0.088025,9.79608
1770803065.6283877,-0.000838,0.000851,-0.000603,-0.035199,-0.091616,9.829599
1770803065.6394205,-3.9e-05,0.001917,0.000463,-0.041185,-0.090419,9.829599
1770803065.641266,-0.001104,-0.000214,-0.001135,-0.039988,-0.10239,9.824811
1770803065.6436522,0.002891,-0.002344,0.000196,-0.034002,-0.086828,9.792489
1770803065.648166,-0.001104,0.000851,-7e-05,-0.050762,-0.099996,9.798475
1770803065.6556687,-0.000838,0.00458,0.000463,-0.04358,-0.09401,9.803263
1770803065.6584918,0.001026,0.000585,0.000463,-0.025623,-0.107178,9.817628
1770803065.6829093,-0.001637,0.002982,0.000196,-0.02682,-0.104784,9.829599
1770803065.6830478,0.002092,-0.00554,-0.000869,-0.039989,-0.083237,9.821219
1770803065.6832087,-0.000305,0.002183,0.000196,-0.054353,-0.091616,9.803263
1770803065.683223,-3.9e-05,0.000851,0.000729,-0.050762,-0.077251,9.811643
1770803065.6839137,0.000494,-0.002877,0.000463,-0.037594,-0.091616,9.786503
1770803065.6910617,0.000227,0.001118,0.000196,-0.020834,-0.089222,9.802066
1770803065.693716,-0.001371,0.003514,-7e-05,-0.030411,-0.080842,9.827205
1770803065.699014,-0.001637,0.000851,-0.000603,-0.053156,-0.09401,9.826008
1770803065.708041,0.000227,5.2e-05,-7e-05,-0.049565,-0.085631,9.827205
1770803065.7088623,-0.000305,0.000585,-0.000336,-0.039988,-0.095207,9.809248
1770803065.7169816,0.00076,-0.000747,0.000196,-0.037594,-0.099996,9.793686
1770803065.7197976,-0.002702,0.005379,0.000196,-0.030412,-0.090419,9.790094
1770803065.7256992,0.001026,-0.003942,-0.000336,-0.042382,-0.089222,9.806854
1770803065.729499,-0.001104,-0.000747,-0.001135,-0.05555,-0.096404,9.817628
1770803065.736259,0.000227,-0.00048,-0.000336,-0.039988,-0.092813,9.806854
1770803065.7396789,-0.000572,0.001384,0.000196,-0.044776,-0.079645,9.809248
1770803065.746848,-3.9e-05,0.002982,0.000463,-0.044776,-0.092813,9.79608
1770803065.7499204,-0.001104,0.001384,-7e-05,-0.048368,-0.092813,9.803262
1770803065.758131,-0.000838,5.2e-05,0.000729,-0.035199,-0.097602,9.803262
1770803065.7593472,0.001825,-0.000747,-0.000336,-0.029214,-0.092813,9.818825
1770803065.7691958,-0.002968,0.004313,0.000196,-0.024426,-0.10239,9.821218
1770803065.7699525,0.000494,-0.002078,-0.000603,-0.037594,-0.095207,9.821219
1770803065.7807813,0.001293,-0.004209,-0.001135,-0.034003,-0.091616,9.811642
1770803065.780865,-0.001371,0.002449,0.000462,-0.042382,-0.099996,9.798474
1770803065.7863247,0.001559,-0.005008,-0.001135,-0.031609,-0.095208,9.799671
1770803065.794746,-0.001903,0.00165,-0.000603,-0.028017,-0.089222,9.799671
1770803065.7949593,-0.001371,0.002449,0.000462,-0.045974,-0.077251,9.814036
1770803065.7997177,0.000227,-0.00048,0.000196,-0.035199,-0.092813,9.831993
1770803065.8054783,-0.001104,-0.003143,-0.000336,-0.061536,-0.078448,9.827204
1770803065.8101232,0.001559,-0.004741,-0.000869,-0.038792,-0.096405,9.80805
1770803065.8161159,0.001559,-0.005008,-0.001135,-0.029215,-0.091616,9.810444
1770803065.8216882,-0.001104,0.003248,0.000462,-0.029214,-0.095207,9.806853
1770803065.8293276,-0.001371,0.005112,0.000462,-0.034003,-0.104784,9.814036
1770803065.8304794,0.001559,-0.001279,-7e-05,-0.043579,-0.088025,9.805656
1770803065.8363209,-0.002169,0.003514,0.000462,-0.051959,-0.099996,9.809248
1770803065.841377,-0.000838,0.00165,0.000995,-0.036397,-0.088025,9.803262
1770803065.8472614,-0.000572,0.004047,0.000462,-0.0352,-0.085631,9.80805
1770803065.850785,-0.000572,0.00165,0.000462,-0.0352,-0.101193,9.805657
1770803065.8579364,-0.000305,0.002716,0.000196,-0.042382,-0.101193,9.802065
1770803065.8606813,-0.002436,0.005379,0.000729,-0.04358,-0.090419,9.806853
1770803065.8658404,0.001559,0.001118,0.000462,-0.030411,-0.079645,9.811642
1770803065.8747737,-0.001104,0.003781,-7e-05,-0.042383,-0.088025,9.818824
1770803065.8823452,-0.004034,0.005112,0.000196,-0.029215,-0.088025,9.81643
1770803065.8825057,-0.000838,0.003514,-7e-05,-0.038791,-0.099996,9.805656
1770803065.8892496,0.000227,-0.001013,0.000196,-0.045973,-0.083236,9.804459
1770803065.8922675,-0.001371,0.002716,-0.000336,-0.037594,-0.082039,9.814036
1770803065.900783,-0.000305,0.000585,-0.000336,-0.038791,-0.088025,9.814036
1770803065.9066777,0.000227,0.000851,-7e-05,-0.037594,-0.091616,9.81643
1770803065.906931,-3.9e-05,0.000851,-7e-05,-0.035199,-0.091616,9.82481
1770803065.9125388,0.00076,-0.001013,-0.001402,-0.038791,-0.099996,9.822416
1770803065.9161837,-0.001104,0.003514,0.000995,-0.041185,-0.092813,9.808051
1770803065.9240842,0.001559,-0.003143,0.000196,-0.034003,-0.095208,9.793685
1770803065.926542,-0.001104,0.010439,0.001261,-0.037597,-0.103587,9.803261
1770803065.934498,0.003423,-0.006606,-0.000603,-0.03161,-0.084434,9.822415
1770803065.941299,0.001026,-0.000747,0.000196,-0.050762,-0.088025,9.826007
1770803065.9428642,0.001026,-0.001812,0.000196,-0.051959,-0.091616,9.812839
1770803065.946941,-3.9e-05,0.001118,0.001261,-0.034002,-0.095207,9.815233
1770803065.9524472,0.001825,0.00165,-0.000336,-0.017243,-0.101193,9.821219
1770803065.9574108,-0.002968,0.002982,0.000196,-0.029214,-0.080842,9.803262
1770803065.9625185,0.000227,-0.003676,0.000196,-0.031609,-0.090419,9.793685
1770803065.9668224,-3.9e-05,0.001118,0.000196,-0.038791,-0.084433,9.802065
1770803065.9752371,0.001026,-0.000214,-0.000336,-0.034002,-0.096404,9.826007
1770803065.9768882,-0.001903,0.004047,-7e-05,-0.0352,-0.088025,9.815233
1770803065.9845831,0.001293,-0.003942,-0.000869,-0.059142,-0.099996,9.802065
1770803065.9870265,-0.002169,0.004846,0.000196,-0.045974,-0.091616,9.806853
1770803065.991846,0.003689,-0.010334,-0.001135,-0.042386,-0.078449,9.812837
1770803065.9974513,0.000227,-0.001013,0.000196,-0.038791,-0.09401,9.81643
1770803066.0074065,0.002358,-0.004209,-0.000869,-0.023229,-0.089222,9.822416
1770803066.0074978,0.002358,-0.005008,-0.001135,-0.024427,-0.104785,9.812838
1770803066.0121284,0.001026,-0.003143,-0.000336,-0.037594,-0.095208,9.820021
1770803066.018436,0.002624,-0.002611,-7e-05,-0.030411,-0.092813,9.809247
1770803066.0232317,0.000494,-0.001013,-0.000603,-0.032805,-0.101193,9.802065
1770803066.0285552,0.00076,-0.00048,0.000196,-0.030411,-0.089222,9.805656
1770803066.0324752,-3.9e-05,-0.00048,0.000462,-0.032805,-0.091616,9.803262
1770803066.03887,0.00076,-0.003143,-7e-05,-0.032806,-0.095208,9.826007
1770803066.0422387,-0.000572,0.000851,-7e-05,-0.043579,-0.090419,9.826007
1770803066.0488696,-0.001903,0.003781,0.000729,-0.037594,-0.095208,9.829598
1770803066.0527916,0.002358,-0.003676,0.000196,-0.044777,-0.095208,9.80805
1770803066.059197,0.001559,-0.004475,-0.000336,-0.05196,-0.092813,9.797276
1770803066.0628276,0.001026,-0.001279,-7e-05,-0.024426,-0.086828,9.803262
1770803066.0702236,-0.000572,0.000851,0.000462,-0.031608,-0.084434,9.800868
1770803066.076245,-0.002702,0.003781,0.000729,-0.04358,-0.083237,9.815233
1770803066.0811791,-0.003767,0.008042,0.000462,-0.038793,-0.086829,9.812837
1770803066.0927062,-0.000305,5.2e-05,0.000196,-0.031608,-0.088025,9.812839
1770803066.0933158,0.000494,-0.000747,-7e-05,-0.053156,-0.095207,9.809247
1770803066.093994,-0.000838,0.001118,-0.000336,-0.028017,-0.09401,9.800868
1770803066.1024656,-0.000838,0.002449,-0.000336,-0.02682,-0.080842,9.802065
1770803066.1041284,-0.001637,5.2e-05,-0.000336,-0.023229,-0.088025,9.809247
1770803066.108877,-0.000572,0.00458,0.000462,-0.0352,-0.09401,9.80805
1770803066.1166954,-0.001637,0.005911,0.000462,-0.045975,-0.088025,9.829598
1770803066.1189103,0.000494,-0.001546,0.000196,-0.037594,-0.091616,9.834387
1770803066.1234949,0.001825,-0.004475,-0.000336,-0.050763,-0.092813,9.805656
1770803066.1286745,0.00076,-0.000747,0.000196,-0.044776,-0.086828,9.797276
1770803066.1338837,-0.002436,0.003248,-7e-05,-0.048368,-0.098799,9.792488
1770803066.1423352,0.001825,-0.002877,0.000462,-0.041185,-0.097602,9.800868
1770803066.1440609,-0.000305,0.000585,0.000196,-0.038791,-0.086828,9.80805
1770803066.1501029,0.002891,0.000851,0.000196,-0.037594,-0.091616,9.822415
1770803066.1543365,-0.000305,0.00165,0.000196,-0.025623,-0.080842,9.803262
1770803066.1599784,-3.9e-05,0.002715,0.000196,-0.034003,-0.079645,9.800868
1770803066.1639407,-3.9e-05,-0.00048,-0.001135,-0.032805,-0.095207,9.805656
1770803066.1706293,0.001026,0.000319,-7e-05,-0.022031,-0.092813,9.812839
1770803066.1754403,0.003956,-0.004741,-0.000869,-0.030412,-0.062886,9.806853
1770803066.1805117,-0.005099,0.011504,0.000462,-0.026824,-0.067676,9.830793
1770803066.1971862,0.002092,-0.00341,0.000196,-0.031609,-0.076054,9.843963
1770803066.1972697,0.002092,-0.002611,0.000729,-0.075901,-0.103587,9.732633
1770803066.198568,0.000494,0.002715,-7e-05,-0.028017,-0.04852,9.859526
1770803066.2080176,0.00076,-0.000214,-0.000603,-0.054353,-0.090419,9.756575
1770803066.208134,0.000494,0.000851,-7e-05,-0.028017,-0.091616,9.828401
1770803066.2099605,0.002092,0.000319,-7e-05,-0.037594,-0.115558,9.800868
1770803066.217028,0.000227,-0.003143,-7e-05,-0.034003,-0.104784,9.820021
1770803066.220357,0.000494,0.002715,0.000462,-0.048368,-0.101193,9.80805
1770803066.2264702,-0.001637,0.00165,0.000196,-0.043579,-0.107179,9.800868
1770803066.2300704,0.00076,0.000319,-7e-05,-0.0352,-0.096405,9.814036
1770803066.2351756,-3.9e-05,-0.000214,-0.001402,-0.031608,-0.097602,9.800868
1770803066.2412047,-0.000305,0.000585,0.000995,-0.05555,-0.101193,9.81643
1770803066.2465289,-0.000572,-0.002877,-7e-05,-0.04358,-0.104784,9.798473
1770803066.2499902,-0.001637,0.002982,-0.000603,-0.029214,-0.096405,9.827204
1770803066.2571254,0.001559,-0.001013,-0.000869,-0.032805,-0.099996,9.822415
1770803066.2599761,-0.000838,0.00165,-7e-05,-0.044776,-0.086828,9.810444
1770803066.2666576,0.002358,-0.004741,-7e-05,-0.036398,-0.097602,9.803261
1770803066.2708561,-0.0043,0.00964,0.000462,-0.038794,-0.094012,9.804457
1770803066.275684,-3.9e-05,-0.000214,-0.000336,-0.041185,-0.082039,9.800867
1770803066.2820914,0.00076,-0.000214,-7e-05,-0.044777,-0.096405,9.821218
1770803066.2920492,0.001026,-0.005008,-0.000603,-0.034003,-0.090419,9.82002
1770803066.2927275,-0.002436,0.004047,-0.000603,-0.039989,-0.089222,9.835583
1770803066.2953694,0.002624,-0.001279,-7e-05,-0.043579,-0.097602,9.797276
1770803066.3013093,0.000227,0.000585,0.000462,-0.034003,-0.082039,9.805656
1770803066.3080926,-0.001903,0.002183,-0.000603,-0.034003,-0.095208,9.800867
1770803066.3137221,0.002624,-0.004209,-0.000603,-0.029215,-0.10239,9.810444
1770803066.316624,-3.9e-05,-0.001013,-0.000603,-0.032806,-0.105981,9.798473
1770803066.326277,-0.00137,0.000585,0.000462,-0.02682,-0.092813,9.815232
1770803066.3263857,-0.001104,0.001118,-0.000336,-0.038791,-0.095208,9.810444
1770803066.3308156,-0.000305,-0.001013,-0.000336,-0.042382,-0.083237,9.804458
1770803066.3366396,0.00076,0.00165,0.000729,-0.042382,-0.086828,9.796079
1770803066.3412986,-0.001903,0.004313,0.000729,-0.037595,-0.07366,9.802064
1770803066.3469467,-0.00137,-0.000747,-0.000336,-0.038791,-0.095207,9.821218
1770803066.3517911,0.001825,-0.002345,-0.000336,-0.044777,-0.086828,9.826006
1770803066.359243,0.001026,-0.001279,-0.000603,-0.037594,-0.089222,9.816429
1770803066.361762,0.000494,-0.001279,0.000462,-0.037594,-0.091616,9.806853
1770803066.370359,0.001825,-0.004209,-0.000336,-0.041186,-0.094011,9.810444
1770803066.371791,0.000494,0.004313,-7e-05,-0.039989,-0.088025,9.797276
1770803066.3761141,0.002358,-0.006606,-0.000603,-0.029216,-0.085631,9.81164
1770803066.383662,-0.002968,0.001118,-0.000869,-0.029214,-0.096405,9.815232
1770803066.3869379,-0.001104,0.002715,0.000729,-0.030412,-0.09401,9.811641
1770803066.3965588,-3.9e-05,-0.002345,0.000729,-0.038791,-0.101193,9.824809
1770803066.397278,0.001293,-0.003942,-0.000603,-0.049565,-0.104784,9.802064
1770803066.4033582,0.00076,0.002183,0.000729,-0.0352,-0.091616,9.796079
1770803066.4070063,0.003157,-0.004475,-0.000336,-0.037595,-0.103588,9.793684
1770803066.4130988,0.000227,-0.002611,-0.000336,-0.032806,-0.09401,9.805656
1770803066.4173443,-0.002169,0.003781,-7e-05,-0.032806,-0.089222,9.80805
1770803066.424706,0.001026,0.001917,0.000729,-0.039988,-0.089222,9.824809
1770803066.427566,-0.000838,0.003514,0.000462,-0.036397,-0.095208,9.809247
1770803066.4358797,-0.001637,0.002982,-7e-05,-0.032806,-0.091616,9.80805
1770803066.4369519,0.000494,-0.001279,0.000196,-0.031608,-0.084434,9.798473
1770803066.4422164,0.000494,0.001384,-0.000336,-0.031608,-0.098799,9.79967
1770803066.4471552,-0.001637,-0.00048,-0.000336,-0.042382,-0.098799,9.810444
1770803066.4535296,0.002624,-0.009002,-0.001135,-0.035203,-0.098799,9.826005
1770803066.4576762,0.000494,-0.00048,-0.000603,-0.039988,-0.088025,9.818824
1770803066.463874,-0.002436,0.00671,0.001261,-0.050764,-0.089222,9.80326
1770803066.4688892,0.003157,-0.008736,-0.001135,-0.042385,-0.084434,9.802063
1770803066.4749665,-0.001903,0.000851,0.000196,-0.036397,-0.086828,9.806853
1770803066.4774446,0.001559,-0.001279,-7e-05,-0.043579,-0.095208,9.814035
1770803066.4869123,-0.003235,0.005379,-7e-05,-0.028018,-0.089223,9.81164
1770803066.4883835,-0.000572,0.000319,-0.000603,-0.045974,-0.095208,9.821218
1770803066.4976163,-0.000572,-0.002877,-0.000869,-0.039988,-0.107178,9.812838
1770803066.5500968,0.00076,-0.000747,-7e-05,-0.042382,-0.09401,9.810444
1770803066.5564826,0.001559,-0.001812,-7e-05,-0.034003,-0.094011,9.800867
1770803066.557282,0.001026,-0.001013,0.000196,-0.041185,-0.090419,9.793685
1770803066.557592,-0.000838,0.00165,-0.000336,-0.0352,-0.095208,9.798473
1770803066.5578077,0.00076,0.002715,0.000196,-0.039988,-0.098799,9.824809
1770803066.5580196,-0.000572,0.002449,0.000196,-0.045974,-0.095208,9.823612
1770803066.558179,-0.000838,-0.000214,-0.000336,-0.043579,-0.086828,9.81643
1770803066.5583026,-0.001104,0.001118,0.000462,-0.043579,-0.090419,9.812838
1770803066.5583644,-0.001371,0.002449,0.000462,-0.044777,-0.091616,9.808049
1770803066.558507,0.001559,-0.000747,0.000462,-0.038791,-0.092813,9.797276
1770803066.55893,-0.000572,0.002449,0.000196,-0.034003,-0.099996,9.802064
1770803066.559117,-0.000572,0.003514,0.000729,-0.041186,-0.099996,9.815232
1770803066.5596466,0.004222,-0.007405,0.000196,-0.041187,-0.080843,9.812837
1770803066.5641003,0.001293,-0.002611,-7e-05,-0.031609,-0.097602,9.816429
1770803066.5686984,-0.000305,0.001384,-7e-05,-0.0352,-0.091616,9.818823
1770803066.5738206,-0.000838,5.2e-05,-7e-05,-0.039988,-0.090419,9.793684
1770803066.5800793,0.000227,-0.001812,0.000196,-0.04358,-0.091616,9.79967
1770803066.583586,-0.000305,0.001384,0.000462,-0.04358,-0.079645,9.820021
1770803066.591308,-0.001371,0.002715,0.000196,-0.0352,-0.089222,9.814035
1770803066.5990973,-0.002436,0.003781,-0.000337,-0.032806,-0.095208,9.82002
1770803066.5992258,-0.002169,-0.001279,-0.000603,-0.039988,-0.09401,9.816429
1770803066.6067336,0.00076,0.003248,0.001261,-0.029215,-0.10239,9.797275
1770803066.612546,-0.001104,0.003514,0.000196,-0.0352,-0.086828,9.804458
1770803066.6142576,-0.001104,0.004047,0.000196,-0.0352,-0.094011,9.800867
1770803066.6205633,0.002624,-0.002877,0.000196,-0.044777,-0.078448,9.811641
1770803066.6250563,-0.000572,-0.001546,-0.000337,-0.055551,-0.091616,9.829597
1770803066.6300316,0.00076,5.2e-05,0.000196,-0.056748,-0.107179,9.815232
1770803066.636411,0.00076,-0.000747,-0.000337,-0.0352,-0.088025,9.809247
1770803066.6397657,-0.001637,0.000585,-7e-05,-0.042382,-0.071266,9.802064
1770803066.6438177,0.001293,-0.003676,-0.000869,-0.036397,-0.079645,9.803261
1770803066.6500642,0.002092,0.000319,0.000196,-0.036397,-0.096405,9.787699
1770803066.6558142,-0.000838,0.000319,-7e-05,-0.0352,-0.097602,9.810444
1770803066.6601331,0.001825,-0.004741,-0.000869,-0.034004,-0.088025,9.818823
1770803066.665031,0.00076,-0.002345,-0.000337,-0.045974,-0.094011,9.815232
1770803066.6729364,-3.9e-05,-0.000747,-0.000337,-0.036397,-0.091616,9.810444
1770803066.6746106,-0.000572,0.00165,-0.000603,-0.039988,-0.089222,9.810444
1770803066.6833901,-0.000838,0.006177,0.000995,-0.049566,-0.08204,9.800866
1770803066.6849797,-0.001104,0.002982,0.000196,-0.034003,-0.092814,9.805655
1770803066.6960769,-0.001371,0.004846,0.000462,-0.035201,-0.096405,9.814035
1770803066.704839,-0.000572,0.00165,-7e-05,-0.036397,-0.098799,9.814035
1770803066.706274,-0.001104,-0.001013,0.000196,-0.038791,-0.098799,9.815232
1770803066.7064066,0.000494,5.2e-05,-7e-05,-0.038791,-0.095208,9.802064
1770803066.709923,-3.9e-05,-0.00048,-7e-05,-0.034003,-0.095208,9.80805
1770803066.7151885,-0.002436,0.00458,0.000462,-0.029215,-0.088025,9.792487
1770803066.7213578,-0.001637,0.003514,0.000196,-0.023229,-0.101193,9.79967
1770803066.7258677,0.001026,0.001916,0.000729,-0.031609,-0.097602,9.815232
1770803066.730188,0.000227,0.001384,-0.000603,-0.037594,-0.094011,9.80805
1770803066.7361188,-0.001903,0.001117,-0.000869,-0.044777,-0.090419,9.826006
1770803066.7415762,-0.001371,-0.00048,-7e-05,-0.044777,-0.088025,9.815232
1770803066.7455049,0.00076,-0.001279,-7e-05,-0.041185,-0.095208,9.804458
1770803066.7508698,-0.000838,0.002715,0.000995,-0.047171,-0.099996,9.79967
1770803066.7558718,-0.000572,0.002982,-0.000603,-0.028018,-0.078448,9.811641
1770803066.7612689,-0.000838,0.001117,0.000995,-0.044777,-0.099996,9.816429
1770803066.7660105,-3.9e-05,0.001117,0.000196,-0.048368,-0.104784,9.797276
1770803066.7711713,-0.000572,0.001916,0.000196,-0.0352,-0.089222,9.806852
1770803066.777957,0.002358,-0.00341,0.000462,-0.039989,-0.09042,9.817626
1770803066.7809396,0.001825,0.000585,0.000462,-0.041185,-0.099996,9.803261
1770803066.7868698,0.002358,-0.00554,-0.001402,-0.039989,-0.092814,9.798472
1770803066.798812,-0.000572,-0.00341,-7e-05,-0.036397,-0.089222,9.816429
1770803066.7988737,-0.001637,0.002982,-0.000337,-0.041186,-0.089222,9.810444
1770803066.8085394,-0.000572,0.004047,0.000462,-0.020835,-0.089222,9.82002
1770803066.8092663,-0.000305,0.002183,0.000196,-0.030412,-0.089222,9.809247
1770803066.8120077,0.000494,0.002183,0.001794,-0.044777,-0.094011,9.812838
1770803066.819051,0.000494,-0.002877,-0.001135,-0.034003,-0.095208,9.804458
1770803066.8214176,-3.9e-05,-0.001013,-0.000337,-0.037594,-0.098799,9.810443
1770803066.8269815,-0.001104,-0.00341,-0.001135,-0.029215,-0.104784,9.809246
1770803066.832288,0.00076,0.000318,0.000462,-0.038791,-0.086828,9.812838
1770803066.8374624,-3.9e-05,-0.002078,-7e-05,-0.045974,-0.094011,9.82002
1770803066.8420148,-0.000572,0.00165,0.000462,-0.047171,-0.08204,9.817626
1770803066.8482447,0.001026,-0.001546,-0.000337,-0.034003,-0.095208,9.805655
1770803066.8519657,-0.000572,-0.001546,-0.000603,-0.030412,-0.086828,9.800867
1770803066.8568218,-0.000305,0.000585,-0.000337,-0.048368,-0.096405,9.808049
1770803066.8624914,0.001026,-0.004209,-7e-05,-0.04358,-0.099996,9.812837
1770803066.8706813,-0.000305,-0.002877,-0.000337,-0.037594,-0.092814,9.821217
1770803066.8720572,-0.001637,0.002449,-7e-05,-0.036397,-0.094011,9.816429
1770803066.877382,-0.001903,0.004313,-7e-05,-0.037595,-0.088025,9.817626
1770803066.8833756,-0.002169,-0.002877,-0.000603,-0.034003,-0.09401,9.815232
1770803066.8879986,0.002358,-0.003144,-7e-05,-0.045974,-0.089223,9.81164
1770803066.896495,0.003689,-0.00554,-0.000337,-0.048369,-0.078449,9.815231
1770803066.897854,-0.002436,0.004846,0.000196,-0.042383,-0.094011,9.816428
1770803066.9070787,-0.001104,0.004313,0.000462,-0.035201,-0.098799,9.810443
1770803066.907731,-0.000305,-0.000214,-0.000337,-0.030412,-0.083237,9.809246
1770803066.912488,0.000227,0.002715,0.000196,-0.026821,-0.099996,9.81164
1770803066.9174535,0.001293,-0.00048,-0.000337,-0.024426,-0.099996,9.810443
1770803066.9241412,0.000227,-0.001279,-0.000337,-0.049565,-0.092814,9.81164
1770803066.9284623,-0.001637,-0.001279,-0.000603,-0.044777,-0.097602,9.806852
1770803066.9327419,0.001026,-0.001279,-7e-05,-0.032806,-0.083237,9.806852
1770803066.9404871,0.000227,0.002449,0.000729,-0.044777,-0.088025,9.806852
1770803066.942505,0.005554,-0.010068,-0.000869,-0.056751,-0.084436,9.809244
1770803066.948885,0.004222,-0.007138,-0.001135,-0.045976,-0.102391,9.809245
1770803066.954907,0.000227,5.2e-05,-0.000337,-0.036397,-0.094011,9.79967
1770803066.958347,-0.000572,0.004047,0.000462,-0.026821,-0.095208,9.799669
1770803066.9628584,-0.001104,-0.000747,-0.000603,-0.02682,-0.085631,9.805655
1770803066.9692721,-0.000572,0.006177,0.000729,-0.026822,-0.101193,9.817625
1770803066.973501,0.000227,0.000318,0.000196,-0.032806,-0.080843,9.811641
1770803066.9782484,-0.001104,0.000318,-0.000337,-0.044777,-0.085631,9.816429
1770803066.9856687,-0.000572,0.003781,0.000729,-0.042383,-0.083237,9.799669
1770803066.9889712,-0.000305,0.000585,-0.000603,-0.044777,-0.07366,9.802064
1770803066.9964287,-0.000572,-0.00048,-0.001402,-0.04358,-0.079645,9.805655
1770803066.9983578,0.002358,-0.004209,-7e-05,-0.047172,-0.095208,9.814034
1770803067.0087159,-0.001104,0.002183,0.000462,-0.038791,-0.10239,9.8284
1770803067.0136163,0.002624,-0.004742,-7e-05,-0.031609,-0.089223,9.81164
1770803067.0140257,0.00076,-0.001546,-7e-05,-0.038791,-0.096405,9.817626
1770803067.020752,0.001026,-0.001013,0.000196,-0.0352,-0.089222,9.814035
1770803067.0235434,-0.001371,-0.002345,-0.000869,-0.030412,-0.095208,9.79129
1770803067.0313983,-0.000572,-0.002078,-0.000337,-0.038791,-0.092814,9.808049
1770803067.0335965,0.000227,-0.00048,0.000196,-0.025623,-0.088025,9.811641
1770803067.0419297,-0.000838,0.001384,0.000462,-0.029215,-0.091616,9.818823
1770803067.0436666,0.002624,-0.002345,0.000196,-0.041186,-0.083237,9.812837
1770803067.0532064,-0.000572,-0.002345,-7e-05,-0.045974,-0.080843,9.81164
1770803067.0537558,0.000227,-0.001013,-0.000603,-0.048368,-0.095208,9.809246
1770803067.0595753,-3.9e-05,0.001384,-7e-05,-0.031609,-0.086828,9.798472
1770803067.0646179,-3.9e-05,0.000585,-7e-05,-0.042383,-0.083237,9.800867
1770803067.0691752,-0.000305,0.000585,-0.000869,-0.044777,-0.094011,9.811641
1770803067.075319,-0.002968,0.002715,0.000462,-0.042383,-0.092814,9.804458
1770803067.0792375,0.001293,0.000851,-7e-05,-0.048368,-0.099996,9.810443
1770803067.0855181,-0.002436,0.002449,-0.000603,-0.041186,-0.094011,9.82002
1770803067.089506,-0.000305,0.001117,-0.000603,-0.04358,-0.101193,9.803261
1770803067.096461,-0.001637,0.001916,0.000462,-0.039989,-0.095208,9.806852
1770803067.1036232,-0.001637,5.2e-05,0.000196,-0.024426,-0.104785,9.821217
1770803067.110742,-0.002968,0.005378,0.000196,-0.007668,-0.083237,9.822414
1770803067.1112363,0.00076,-0.00341,-0.000603,-0.017244,-0.079646,9.821217
1770803067.1144984,0.00076,0.001384,-0.000337,-0.041186,-0.071266,9.821217
1770803067.1199985,0.001559,-0.006872,-0.000869,-0.061538,-0.080843,9.810442
1770803067.1267214,0.001825,-0.000747,-0.000337,-0.060339,-0.078449,9.805655
1770803067.129937,0.001559,-0.001546,-0.000603,-0.037594,-0.080843,9.781713
1770803067.1357937,0.002092,-0.001812,-7e-05,-0.028018,-0.095208,9.808049
1770803067.1438427,-0.002968,0.006444,0.000995,-0.056749,-0.107179,9.820019
1770803067.1451974,0.000227,0.000318,0.000196,-0.056748,-0.115559,9.833188
1770803067.1531355,-0.001104,0.006177,0.001261,-0.022033,-0.114362,9.823611
1770803067.155482,0.001293,0.001916,0.000196,0.000713,-0.115559,9.802063
1770803067.162135,-0.000572,0.001384,-0.000337,-0.018441,-0.089222,9.797275
1770803067.1653774,-0.002436,0.006177,0.000462,-0.04837,-0.080843,9.810442
1770803067.1719854,0.001026,-0.002345,-0.000869,-0.078296,-0.080843,9.817626
1770803067.1753926,0.000227,-0.001279,-0.000337,-0.037594,-0.079646,9.810443
1770803067.1820452,0.00076,-0.001812,-0.000869,-0.019638,-0.083237,9.802063
1770803067.186152,-0.002702,0.006976,0.000196,-0.01126,-0.09042,9.808048
1770803067.193063,0.001293,-0.001279,-0.000603,-0.048368,-0.108376,9.805655
1770803067.1957247,0.001293,-0.001812,0.000729,-0.068719,-0.09042,9.814034
1770803067.2041466,-3.9e-05,5.2e-05,0.000462,-0.04358,-0.099996,9.810443
1770803067.2053108,-0.002169,0.005645,0.001261,-0.018442,-0.098799,9.814034
1770803067.2132728,0.002358,-0.002078,-0.001135,-0.018441,-0.098799,9.812837
1770803067.2155535,0.000494,0.000318,0.000196,-0.065128,-0.107179,9.833188
1770803067.2215316,-0.002968,0.003248,0.000462,-0.084282,-0.092814,9.822414
1770803067.2255294,0.001026,-0.005541,-0.001135,-0.045975,-0.094011,9.796077
1770803067.231214,0.00076,-0.003144,-0.001135,-0.005273,-0.085631,9.787698
1770803067.239236,-0.002169,0.006976,0.000729,0.007894,-0.083237,9.791289
1770803067.2412117,-0.001104,0.004047,0.000995,-0.031609,-0.092814,9.806851
1770803067.2488818,0.000494,-0.003943,-0.000337,-0.095056,-0.098799,9.823611
1770803067.2510848,0.00076,-0.002611,-0.000337,-0.083084,-0.095208,9.821217
1770803067.2593331,-0.000572,5.2e-05,-0.000603,-0.034003,-0.11077,9.804458
1770803067.2613678,-0.000572,0.003514,0.000196,-0.001682,-0.094011,9.800866
1770803067.2688825,-0.000305,5.2e-05,-0.000337,-0.018441,-0.096405,9.781713
1770803067.2717822,-3.9e-05,-0.000747,0.000196,-0.069916,-0.104785,9.81164
1770803067.2775986,-0.000838,-0.001546,-0.000603,-0.056748,-0.097602,9.8284
1770803067.2839406,0.001559,-0.003144,-0.000603,-0.01485,-0.079646,9.821217
1770803067.2869031,0.000227,0.002183,0.000196,0.00191,-0.076054,9.809246
1770803067.2918599,0.000227,0.00165,-7e-05,-0.026821,-0.096405,9.822414
1770803067.2974362,-0.000305,-0.001546,-0.001135,-0.065128,-0.095208,9.799669
1770803067.3076918,-0.000572,0.000851,0.000196,-0.07231,-0.085631,9.805655
1770803067.307744,-0.000305,0.001916,-7e-05,-0.042383,-0.102391,9.798472
1770803067.31892,0.00076,0.000318,-7e-05,-0.008864,-0.088025,9.805655
1770803067.3190734,-0.000838,0.00165,0.000729,-0.018441,-0.096405,9.816429
1770803067.3220088,0.002358,-0.002345,-0.000603,-0.061537,-0.103588,9.828399
1770803067.327829,-0.000305,-0.003943,-0.000337,-0.061537,-0.098799,9.826005
1770803067.3348467,0.001293,-0.004209,-0.000603,-0.049566,-0.091617,9.802063
1770803067.3369277,-0.002436,0.008042,0.000729,-0.014852,-0.091617,9.792485
1770803067.34189,-0.000572,0.004579,0.000729,-0.01485,-0.096405,9.791289
1770803067.3477767,-0.000838,5.2e-05,-7e-05,-0.025623,-0.102391,9.81164
1770803067.3530457,-0.001637,0.000585,-0.000603,-0.057945,-0.095208,9.82002
1770803067.3601325,0.00076,-0.002078,-7e-05,-0.05196,-0.098799,9.828399
1770803067.3622346,0.001293,0.000318,0.000729,-0.047171,-0.103588,9.806852
1770803067.3715045,-0.003235,0.003514,-0.000336,-0.020835,-0.099997,9.805654
1770803067.3731978,0.001293,-0.002611,0.000196,-0.007667,-0.097602,9.802063
1770803067.377458,-0.000838,0.00165,0.000729,-0.023229,-0.079646,9.810443
1770803067.3822124,0.001825,-0.004475,-0.000603,-0.036398,-0.076055,9.812837
1770803067.3915205,0.003423,-0.003676,0.000196,-0.038792,-0.079646,9.829596
1770803067.3923068,0.002358,-0.003943,-0.000336,-0.025624,-0.071266,9.818822
1770803067.3991818,-0.000838,0.005645,-7e-05,-0.026822,-0.083237,9.80326
1770803067.40261,-0.001104,-0.001812,-0.000869,-0.049566,-0.076054,9.787698
1770803067.4084837,-0.00217,0.003514,-0.000336,-0.061537,-0.092814,9.792486
1770803067.419661,0.001026,0.000318,0.000196,-0.037594,-0.088025,9.812837
1770803067.4197824,-0.001371,0.002183,0.000196,-0.017244,-0.101194,9.810443
1770803067.424139,0.00076,-0.000481,0.000462,-0.016047,-0.114362,9.812837
1770803067.4300916,-0.001104,0.002449,0.000196,-0.048369,-0.111968,9.827202
1770803067.4338174,-3.9e-05,-0.000214,0.000196,-0.056748,-0.107179,9.80326
1770803067.438958,0.001559,-0.002078,0.000462,-0.054354,-0.091617,9.802063
1770803067.4431129,-0.000838,0.005378,0.000196,-0.035201,-0.079646,9.788895
1770803067.4484608,-0.000572,0.000318,-0.001668,-0.0352,-0.074857,9.809246
1770803067.4549332,-3.9e-05,0.000318,-7e-05,-0.050763,-0.080843,9.810443
1770803067.4603179,0.00076,-0.003943,0.000196,-0.04358,-0.084434,9.814034
1770803067.4659638,-3.9e-05,0.001117,-7e-05,-0.028018,-0.089223,9.806851
1770803067.470941,-0.001104,0.002982,-7e-05,-0.012456,-0.101194,9.805654
1770803067.4733348,-0.0043,0.007509,-7e-05,-0.02802,-0.099998,9.810442
1770803067.4787757,0.000227,0.000318,0.000196,-0.044777,-0.086828,9.81164
1770803067.483715,-0.000838,0.002982,0.000196,-0.045974,-0.078449,9.823611
1770803067.488862,0.004488,-0.007671,-0.001135,-0.036399,-0.085632,9.818821
1770803067.4945648,-0.001371,0.00165,-0.000336,-0.038792,-0.09042,9.815231
1770803067.500827,0.001559,-0.00341,0.000196,-0.049566,-0.084434,9.797274
1770803067.5043194,0.001825,-0.002345,0.000462,-0.06034,-0.095208,9.799669
1770803067.5099912,0.000227,-0.00128,-7e-05,-0.037595,-0.089223,9.797275
1770803067.5210488,-0.000572,-0.000214,-0.000603,-0.019638,-0.092814,9.812837
1770803067.5211592,-3.9e-05,-0.00128,-0.000336,-0.008864,-0.085631,9.80326
1770803067.528535,-3.9e-05,0.005112,0.000196,-0.029216,-0.091617,9.809245
1770803067.5292618,-0.001371,5.2e-05,-0.000603,-0.061536,-0.105982,9.816428
1770803067.5374699,0.000494,-0.004209,-7e-05,-0.066325,-0.085631,9.815231
1770803067.53938,-0.002436,0.005911,0.001528,-0.04837,-0.0988,9.820019
1770803067.5458796,-0.000305,-0.002877,-0.000336,-0.024427,-0.088025,9.790092
1770803067.5544767,-3.9e-05,0.000851,0.000462,-0.023229,-0.088025,9.809246
1770803067.555864,-0.003235,0.00378,-7e-05,-0.036398,-0.088026,9.818822
1770803067.559398,-0.000572,0.00165,-0.000336,-0.048368,-0.086828,9.805654
1770803067.5651817,0.000227,-0.002611,-0.001135,-0.031609,-0.091617,9.814034
1770803067.5726647,-0.001371,0.002449,-0.000336,-0.025624,-0.09042,9.812837
1770803067.5747232,0.000227,0.001384,-7e-05,-0.026821,-0.085631,9.808049
1770803067.581581,-0.004566,0.006444,0.000729,-0.049567,-0.085632,9.800865
1770803067.5851383,0.00076,-0.002078,-0.000869,-0.048369,-0.099996,9.809246
1770803067.5912874,0.000494,-0.001013,-0.001668,-0.047171,-0.091617,9.817625
1770803067.5998063,-0.001104,0.00165,0.000196,-0.034003,-0.088025,9.82002
1770803067.5999832,-0.000305,-0.000214,0.000196,-0.032806,-0.094011,9.808049
1770803067.607737,-0.000305,-0.000481,-0.000336,-0.030412,-0.089223,9.809246
1770803067.6141407,-0.001371,0.002183,0.000462,-0.029215,-0.092814,9.800866
1770803067.6231914,-0.000838,0.00165,0.000196,-0.036397,-0.091617,9.804457
1770803067.6232972,-0.001104,-0.000214,-0.000336,-0.030412,-0.092814,9.815231
1770803067.6271825,0.002092,-0.003144,-7e-05,-0.045975,-0.099997,9.818822
1770803067.6298518,0.00076,-0.001013,-0.000336,-0.047171,-0.102391,9.822413
1770803067.6356368,0.001026,0.002183,0.000196,-0.044777,-0.099996,9.808048
1770803067.6424336,-0.000305,0.000318,0.000462,-0.049566,-0.096405,9.797274
1770803067.647677,0.001825,-0.000481,-7e-05,-0.04358,-0.092814,9.804457
1770803067.6503513,0.001026,-0.000481,0.000729,-0.028018,-0.094011,9.821216
1770803067.6554801,0.000227,0.000585,0.000196,-0.032806,-0.095208,9.820019
1770803067.662787,-0.002969,0.006444,0.000462,-0.037596,-0.102391,9.821215
1770803067.6657228,0.000494,-0.001013,-7e-05,-0.0352,-0.094011,9.820019
1770803067.6718006,-0.00217,5.2e-05,-0.000336,-0.038792,-0.089223,9.812837
1770803067.675435,-3.9e-05,-0.000214,0.000462,-0.041186,-0.098799,9.796077
1770803067.6808407,-0.000305,-0.002079,-0.000336,-0.044777,-0.091617,9.787697
1770803067.6908793,-0.001903,-0.000214,0.000462,-0.031609,-0.094011,9.816428
1770803067.6915436,0.00076,-0.003144,-0.000603,-0.049566,-0.091617,9.821216
1770803067.6987731,-0.000838,0.000851,0.000196,-0.053157,-0.080843,9.810442
1770803067.701581,0.002358,-0.007139,-0.000869,-0.041188,-0.103588,9.812836
1770803067.7079544,0.000227,0.000318,-7e-05,-0.018441,-0.095208,9.787698
1770803067.7160428,0.000227,0.000318,-7e-05,-0.016047,-0.094011,9.779318
1770803067.7168844,-3.9e-05,0.001117,0.000462,-0.019638,-0.103588,9.804457
1770803067.7253823,0.001026,-0.000747,-0.000336,-0.05196,-0.079646,9.811639
1770803067.7260876,0.001293,-0.004742,0.000462,-0.061537,-0.097603,9.833187
1770803067.734624,-3.9e-05,0.001117,0.001261,-0.042383,-0.086828,9.830793
1770803067.7369306,0.001026,0.005378,0.000729,-0.022033,-0.089222,9.799668
1770803067.741367,-0.000572,0.006177,0.000729,-0.023231,-0.088026,9.792485
1770803067.747407,0.001825,-0.001812,-7e-05,-0.056748,-0.101194,9.810442
1770803067.7517648,-3.9e-05,-0.006073,-0.000869,-0.051961,-0.105982,9.799668
1770803067.7571929,-0.003501,0.002715,-0.000336,-0.032806,-0.108377,9.829596
1770803067.7616236,-0.000572,0.004313,0.000995,-0.010062,-0.086828,9.821216
1770803067.7674196,0.001026,-0.00128,-0.000336,-0.020835,-0.094011,9.83199
1770803067.774168,0.000227,-0.000747,0.000462,-0.045974,-0.092814,9.822413
1770803067.7787397,0.001825,-0.002345,0.000729,-0.047172,-0.089223,9.806851
1770803067.7824142,0.002091,-0.00128,0.000729,-0.0352,-0.09042,9.798471
1770803067.7884374,0.000494,-0.001812,-0.000336,-0.030412,-0.076055,9.809245
1770803067.7919843,0.005554,-0.00128,0.000196,-0.031609,-0.08204,9.81523
1770803067.7970352,0.001293,-0.005807,-0.000336,-0.067523,-0.084434,9.821216
1770803067.8055346,-0.001637,5.2e-05,-7e-05,-0.057945,-0.097602,9.829596
1770803067.8069704,-0.000572,-0.000214,-0.000336,-0.026821,-0.104785,9.800866
1770803067.818481,-0.003501,0.008574,0.000462,-0.006472,-0.088026,9.794879
1770803067.8185952,0.001026,0.001916,0.000995,-0.019638,-0.097602,9.799668
1770803067.8279786,-0.000305,0.000585,-7e-05,-0.039989,-0.095208,9.80326
1770803067.828031,-0.001104,5.2e-05,0.000462,-0.063931,-0.101194,9.824808
1770803067.8330762,0.00076,-0.002345,-7e-05,-0.061537,-0.074857,9.821216
1770803067.837927,-3.9e-05,5.2e-05,-7e-05,-0.025624,-0.091617,9.800866
1770803067.8424923,0.001559,-0.000214,-0.001135,-0.01485,-0.088026,9.802063
1770803067.847871,-0.000305,-0.002877,-0.001135,-0.034004,-0.086828,9.810442
1770803067.8534114,-0.001104,0.003248,-7e-05,-0.049566,-0.094011,9.800865
1770803067.8573914,-0.001104,0.000851,0.000196,-0.044777,-0.094011,9.828399
1770803067.8625987,0.001825,-0.00341,-0.000869,-0.032807,-0.107179,9.820019
1770803067.8680723,0.000227,0.002715,0.000196,-0.020835,-0.089223,9.82361
1770803067.874493,0.00076,5.2e-05,0.000462,-0.023229,-0.079646,9.826005
1770803067.8792284,0.000227,0.001117,-7e-05,-0.041186,-0.096405,9.79488
1770803067.8834105,0.002091,-0.005541,0.000196,-0.055552,-0.074858,9.791288
1770803067.888097,0.002358,-0.003943,-0.001135,-0.057946,-0.077252,9.799668
1770803067.8934066,-0.000572,0.001916,-0.000603,-0.031609,-0.0988,9.822413
1770803067.8986008,-0.001903,0.003248,-0.000603,-0.016047,-0.084435,9.799668
1770803067.9137278,-3.9e-05,-0.00128,-0.001135,-0.025624,-0.099997,9.827201
1770803067.9141147,-3.9e-05,-0.001546,-7e-05,-0.038792,-0.102391,9.806851
1770803067.9142065,0.002624,-0.002611,-7e-05,-0.047172,-0.095208,9.804456
1770803067.921784,-3.9e-05,-0.001812,-7e-05,-0.035201,-0.09042,9.808048
1770803067.9305816,0.001559,-0.002079,-0.000336,-0.039989,-0.0988,9.814033
1770803067.9306648,0.001825,-0.004742,-0.001402,-0.041187,-0.097603,9.827201
1770803067.933458,0.003423,-0.004475,-0.000336,-0.053158,-0.088026,9.824807
1770803067.9407806,-3.9e-05,-0.001013,0.000196,-0.055551,-0.088026,9.817625
1770803067.9435945,-0.000305,-0.006073,-0.001402,-0.025625,-0.076054,9.791288
1770803067.9489138,0.001026,0.000851,0.000995,-0.016047,-0.091617,9.797274
1770803067.9546578,0.002091,-0.002611,-0.000336,-0.025624,-0.09042,9.798471
1770803067.959003,-0.000572,-0.002878,-0.000603,-0.042383,-0.086828,9.817625
1770803067.963981,0.001026,-0.006872,-0.001668,-0.038794,-0.095208,9.810441
1770803067.969621,0.000227,0.001117,-0.000336,-0.039989,-0.085631,9.809245
1770803067.9753985,0.003689,-0.003144,-7e-05,-0.044778,-0.091617,9.817624
1770803067.9804542,0.002091,-0.004475,-0.000336,-0.049566,-0.099997,9.817624
1770803067.9860702,0.000494,0.001117,0.000729,-0.045975,-0.094011,9.808048
1770803067.9919517,-0.001903,0.005378,0.000995,-0.042384,-0.09042,9.814033
1770803067.9941864,-0.002702,0.004047,0.000462,-0.036398,-0.092814,9.800865
1770803067.999274,-0.000305,0.003248,0.000462,-0.026821,-0.103588,9.816427
1770803068.0067425,-0.000572,0.004047,0.001261,-0.032807,-0.101194,9.827201
1770803068.0093286,0.001825,-0.005008,-0.000869,-0.038793,-0.08204,9.824807
1770803068.0163407,-0.004034,0.005378,-7e-05,-0.045975,-0.102392,9.804456
1770803068.0221398,0.001825,-0.004209,0.000196,-0.035201,-0.079646,9.802062
1770803068.0245504,-0.002969,0.004579,0.001528,-0.035201,-0.086829,9.784105
1770803068.033256,0.00076,5.2e-05,-0.000336,-0.04358,-0.08204,9.817625
1770803068.0345225,-0.000838,-0.004209,-0.000336,-0.048369,-0.091617,9.810442
1770803068.0421414,0.001825,-0.003943,-0.000603,-0.049566,-0.0988,9.824807
1770803068.0454051,0.001293,-0.00128,-0.000336,-0.037595,-0.095208,9.810442
1770803068.0504518,0.000227,5.2e-05,0.000196,-0.026821,-0.0988,9.802062
1770803068.0579777,0.000494,-0.002079,0.000196,-0.031609,-0.083237,9.796077
1770803068.0598502,-0.000572,0.005112,0.000729,-0.032807,-0.077252,9.817624
1770803068.0649893,0.000494,-0.00128,0.000196,-0.030412,-0.097603,9.799668
1770803068.071372,0.004222,-0.004742,-0.000336,-0.032807,-0.089223,9.811638
1770803068.07634,-0.000572,0.005911,0.000729,-0.044779,-0.084434,9.821215
1770803068.084754,-0.001637,-0.001546,-7e-05,-0.05196,-0.097602,9.811639
1770803068.0862248,0.000494,-0.001812,0.000196,-0.055551,-0.08204,9.804457
1770803068.092574,0.000494,-0.003144,-0.000336,-0.057946,-0.099997,9.806851
1770803068.0954912,-0.001104,0.002449,0.000729,-0.038792,-0.095208,9.808048
1770803068.103197,0.00076,5.2e-05,0.000462,-0.024427,-0.088026,9.809245
1770803068.1053588,0.001293,0.001384,-0.000336,-0.022033,-0.0988,9.805654
1770803068.1110535,0.001825,0.000851,-0.000336,-0.050763,-0.091617,9.809245
1770803068.117088,0.000227,-0.001013,-7e-05,-0.067522,-0.096405,9.810442
1770803068.124634,-0.000305,-0.001013,-7e-05,-0.048369,-0.095208,9.800865
1770803068.1256654,0.001293,-0.000481,-0.000336,-0.020835,-0.079646,9.796077
1770803068.1361957,0.002091,-0.000747,-0.000336,-0.032806,-0.089223,9.806851
1770803068.1364956,0.000494,-0.00341,-0.000336,-0.062734,-0.101194,9.809245
1770803068.1412132,-0.000838,-0.00128,-7e-05,-0.055551,-0.105982,9.829595
1770803068.145886,0.000227,0.00165,-7e-05,-0.041186,-0.092814,9.812836
1770803068.1510575,-0.002436,0.004313,-0.000336,-0.004077,-0.078449,9.792485
1770803068.1604238,-3.9e-05,-0.000214,-0.000336,-0.019638,-0.088026,9.797273
1770803068.1608844,-0.002702,0.005378,0.000196,-0.045976,-0.086829,9.815229
1770803068.168618,-0.001371,-0.001546,-0.000603,-0.069917,-0.08204,9.81523
1770803068.1716921,0.00076,0.00165,0.000196,-0.044778,-0.089223,9.814033
1770803068.1766245,0.000494,0.000585,-7e-05,-0.010062,-0.096405,9.822413
1770803068.1816313,-0.000572,0.005112,-7e-05,-0.026822,-0.092814,9.812835
1770803068.186947,-3.9e-05,0.000851,-0.000336,-0.054354,-0.09042,9.805653
1770803068.1958637,0.001026,-0.006606,-0.000869,-0.055553,-0.099997,9.803258
1770803068.1984415,0.000494,5.2e-05,0.000995,-0.028018,-0.096405,9.809244
1770803068.229206,-0.001637,-0.000214,0.000196,-0.005273,-0.0988,9.799668
1770803068.2294707,0.00289,-0.002611,-7e-05,-0.029215,-0.0988,9.803259
1770803068.2298179,0.00076,0.002449,0.000729,-0.056749,-0.088026,9.828398
1770803068.2298286,0.000494,-0.002079,-7e-05,-0.083085,-0.092814,9.817624
1770803068.2298324,0.003956,-0.003144,0.000729,-0.05196,-0.077252,9.800864
1770803068.2298355,-0.000305,0.00378,0.000995,-0.029216,-0.080843,9.792485
1770803068.2392445,-0.002969,0.007242,0.000729,-0.013655,-0.089223,9.796075
1770803068.2397625,-0.002702,0.004313,0.000463,-0.030413,-0.089223,9.815229
1770803068.243376,0.000227,-0.001812,-0.000603,-0.050763,-0.107179,9.827201
1770803068.2471366,-0.000838,-0.001812,-0.000603,-0.049566,-0.101194,9.827201
1770803068.2529278,-0.001637,0.001916,0.000196,-0.025624,-0.095208,9.804456
1770803068.2572773,0.001026,0.000318,-0.000336,-0.020835,-0.085632,9.799668
1770803068.2618454,0.001559,-0.004209,-0.000336,-0.030413,-0.099997,9.809244
1770803068.2702434,-0.001104,-0.001013,-0.000603,-0.05196,-0.096405,9.808047
1770803068.272137,-0.000838,-0.004209,-0.000336,-0.065129,-0.096405,9.816427
1770803068.2793844,0.001825,-0.00128,0.000995,-0.044778,-0.095208,9.830792
1770803068.2833307,-3.9e-05,-0.002345,-0.000336,-0.028018,-0.0988,9.81523
1770803068.2874076,-0.000305,0.001916,0.000196,-0.032807,-0.089223,9.808047
1770803068.2952292,0.000494,-0.000214,-0.000603,-0.04358,-0.085632,9.798471
1770803068.2979026,0.000494,-0.005807,-0.000869,-0.047173,-0.089223,9.804455
1770803068.3048239,0.000227,-0.000747,-7e-05,-0.029215,-0.094011,9.803259
1770803068.3079138,-0.002436,0.005645,0.000196,-0.022034,-0.089223,9.815229
1770803068.3132923,0.000227,-0.000481,-0.000336,-0.038792,-0.0988,9.814033
1770803068.3180783,-0.000838,-0.000481,-0.000336,-0.038792,-0.097603,9.811639
1770803068.3295252,-0.001903,0.003514,-7e-05,-0.047172,-0.099997,9.799667
1770803068.3295717,-0.002436,0.001916,-7e-05,-0.030412,-0.101194,9.796076
1770803068.3408134,0.001559,-0.000214,0.001262,-0.025624,-0.092814,9.816427
1770803068.3412163,-3.9e-05,0.002449,0.000463,-0.043581,-0.0988,9.805653
1770803068.342996,-0.001637,0.007242,0.000729,-0.053159,-0.095209,9.826003
1770803068.3504364,-0.000838,0.001916,-0.000336,-0.031609,-0.096406,9.811639
1770803068.3537498,-0.001637,0.00165,-0.000336,-0.031609,-0.094011,9.80685
1770803068.3586702,0.00076,-0.003144,-0.000869,-0.038792,-0.084434,9.805653
1770803068.3633804,0.000494,-0.001013,0.000196,-0.045975,-0.09042,9.794879
1770803068.3689032,-3.9e-05,0.000318,-7e-05,-0.042383,-0.084434,9.799668
1770803068.3734748,0.001293,-0.003144,-0.000336,-0.037595,-0.091617,9.811638
1770803068.3794103,-0.001637,0.005112,0.000995,-0.03161,-0.099997,9.808047
1770803068.3864474,0.000494,-0.001013,-0.000869,-0.034004,-0.091617,9.817624
1770803068.3886015,-0.001371,0.00165,0.000729,-0.048369,-0.099997,9.808047
1770803068.3934553,0.001559,-0.002611,-0.000603,-0.03161,-0.102391,9.800865
1770803068.3987093,-0.000305,0.000585,0.000196,-0.037595,-0.094011,9.796076
1770803068.4045691,0.000227,0.000851,0.000196,-0.034004,-0.085632,9.814033
1770803068.4087503,-3.9e-05,0.002182,-7e-05,-0.049566,-0.091617,9.809244
1770803068.413857,0.003956,-0.008204,-0.000603,-0.050765,-0.072464,9.824805
1770803068.419393,-0.001104,0.00165,-7e-05,-0.026821,-0.074858,9.814033
1770803068.4239135,-0.002969,0.004047,0.000729,-0.032807,-0.096406,9.814032
1770803068.4321628,0.001825,0.000318,0.000196,-0.030412,-0.101194,9.804456
1770803068.4373896,-0.00217,0.000318,-0.000336,-0.035201,-0.088026,9.793682
1770803068.4421616,-0.001903,0.004313,-7e-05,-0.03999,-0.096406,9.812835
1770803068.4443746,0.00289,-0.003943,0.000463,-0.047172,-0.085632,9.821215
1770803068.4499874,0.000494,-0.002079,-7e-05,-0.043581,-0.105982,9.823609
1770803068.454981,0.004222,-0.005274,0.000196,-0.038793,-0.099998,9.809243
1770803068.4595277,0.002092,-0.006606,-0.000869,-0.041188,-0.09042,9.820017
1770803068.4644897,0.002358,-0.005807,-0.000603,-0.03999,-0.0988,9.797272
1770803068.4706824,-0.001637,0.000585,0.000196,-0.036398,-0.08204,9.799667
1770803068.475281,0.001293,-0.001546,-7e-05,-0.03161,-0.088026,9.81523
1770803068.4792595,0.001559,0.00378,0.000463,-0.043581,-0.092814,9.816427
1770803068.486694,-3.9e-05,-0.002079,-0.000603,-0.034004,-0.094011,9.823609
1770803068.4915226,0.002092,-0.002345,-0.000336,-0.045975,-0.084435,9.821215
1770803068.4960258,-3.9e-05,5.2e-05,-7e-05,-0.053157,-0.086829,9.814033
1770803068.5000021,0.000494,0.003514,0.000729,-0.037595,-0.089223,9.796076
1770803068.5073278,-0.000305,0.004313,0.000729,-0.029216,-0.074858,9.800864
1770803068.5099952,-0.001371,0.001916,0.000196,-0.030413,-0.095209,9.800864
1770803068.5156624,-0.000572,0.000318,0.000196,-0.059143,-0.089223,9.828398
1770803068.5207498,0.001825,-0.003943,-0.001135,-0.044778,-0.099997,9.8272
1770803068.5254574,-0.001371,0.005645,0.000196,-0.01126,-0.105983,9.802061
1770803068.5305178,0.000227,5.2e-05,-7e-05,-0.020836,-0.088026,9.805653
1770803068.5382464,0.001825,-0.002611,0.000196,-0.050763,-0.104785,9.799667
1770803068.5474787,-0.001903,0.002449,0.001528,-0.059143,-0.105982,9.808047
1770803068.5475416,-0.001371,-0.002079,-7e-05,-0.05196,-0.0988,9.816427
1770803068.5509117,-0.001637,0.002981,-0.000603,-0.008865,-0.089223,9.812835
1770803068.5555356,0.002358,-0.002079,-0.000336,-0.018442,-0.08204,9.81523
1770803068.560935,-0.001104,0.004047,0.000196,-0.048369,-0.08204,9.8272
1770803068.5653596,0.001026,-0.002878,-0.000336,-0.067523,-0.089223,9.809244
1770803068.5730393,-0.000305,0.002182,-7e-05,-0.044778,-0.088026,9.804456
1770803068.5753229,-0.000305,0.001117,0.000463,-0.025624,-0.080843,9.800864
1770803068.5808988,0.002092,-0.004742,-0.000869,-0.008865,-0.085632,9.805652
1770803068.5874286,0.00076,0.000851,0.000463,-0.039989,-0.097603,9.823609
1770803068.592879,-0.001104,-0.002345,-7e-05,-0.069917,-0.102391,9.840369
1770803068.597076,-0.000572,0.000851,-0.000869,-0.059143,-0.097603,9.80685
1770803068.6013854,0.00289,-0.00341,-7e-05,-0.017245,-0.085632,9.79847
1770803068.6067007,-0.002436,0.002182,0.000463,-0.024427,-0.097603,9.794879
1770803068.611827,0.001026,-0.002345,0.000196,-0.056749,-0.094011,9.805653
1770803068.6160479,0.001293,-0.005008,-0.000603,-0.063932,-0.101194,9.820018
1770803068.627608,0.002624,-0.005008,-7e-05,-0.043581,-0.085632,9.824806
1770803068.628101,-0.000572,-0.002079,-0.000603,-0.028018,-0.086829,9.816427
1770803068.6311605,-0.000838,0.002182,0.000463,-0.017244,-0.085632,9.805653
1770803068.6377847,0.002624,-0.003676,-0.000336,-0.042384,-0.092815,9.808047
1770803068.6480594,-0.001637,0.001384,0.000463,-0.05196,-0.092814,9.796076
1770803068.648103,-0.001371,0.001916,0.000196,-0.055552,-0.099997,9.81523
1770803068.6524737,-0.000305,0.001117,0.000463,-0.029215,-0.083237,9.808047
1770803068.6652558,-0.000572,0.00378,-7e-05,-0.020836,-0.083238,9.823609
1770803068.6654308,0.00076,0.000318,0.000463,-0.025624,-0.094011,9.817624
1770803068.666671,0.001026,-0.00341,-0.000869,-0.065129,-0.088026,9.804456
1770803068.6733015,-0.000572,0.000851,0.000196,-0.037595,-0.086829,9.804456
1770803068.6769521,-0.001903,0.005378,-7e-05,-0.032808,-0.080844,9.782907
1770803068.683052,-0.001371,-0.000481,-0.000869,-0.025624,-0.085632,9.791288
1770803068.6880033,-0.000305,-0.00128,-0.000336,-0.053157,-0.091617,9.818821
1770803068.6917207,-0.001104,-0.002345,-0.000336,-0.055552,-0.095208,9.824806
1770803068.697499,0.001293,-0.002079,-7e-05,-0.039989,-0.089223,9.814032
1770803068.7021918,-0.003501,0.00165,-0.001135,-0.028018,-0.082041,9.805653
1770803068.7079093,-3.9e-05,-0.000481,-0.000603,-0.019639,-0.097603,9.800864
1770803068.7127106,-0.000572,5.2e-05,0.000463,-0.044778,-0.103588,9.808047
1770803068.7173126,-3.9e-05,-0.006073,-0.000603,-0.053159,-0.085632,9.81044
1770803068.7274003,0.001293,-0.002079,0.000196,-0.041187,-0.099997,9.815229
1770803068.7280192,-0.001104,0.003248,0.000463,-0.022033,-0.089223,9.8272
1770803068.7331996,0.000494,-0.001812,-0.000336,-0.039989,-0.089223,9.805653
1770803068.7419708,-0.003235,0.008574,0.000463,-0.069919,-0.07845,9.809243
1770803068.7516537,-0.000305,-0.000481,0.000463,-0.056749,-0.091617,9.796076
1770803068.7518752,-0.000572,-0.000214,-0.000336,-0.028018,-0.086829,9.812835
1770803068.7523894,0.000494,0.002715,0.000729,-0.004077,-0.088026,9.824806
1770803068.7581728,0.001559,-0.003676,-0.000869,-0.025625,-0.09042,9.824806
1770803068.7626638,0.000494,-0.00341,-0.001135,-0.063932,-0.094011,9.828397
1770803068.7685602,0.000227,-0.001546,-0.000336,-0.050763,-0.084435,9.818821
1770803068.7729092,0.000494,-0.004742,-0.000336,-0.049567,-0.085632,9.810441
1770803068.7800665,-3.9e-05,-0.000481,0.000196,-0.029215,-0.089223,9.799667
1770803068.7851064,-0.000305,0.000585,-7e-05,-0.030413,-0.089223,9.800864
1770803068.7881756,0.001026,5.2e-05,0.000463,-0.03161,-0.083237,9.805653
1770803068.7937868,0.001559,-0.00341,-0.000336,-0.048369,-0.097603,9.823609
1770803068.7990296,0.002091,-0.003943,-0.000336,-0.045975,-0.092815,9.817623
1770803068.8055851,0.00076,0.00165,0.000196,-0.024427,-0.08204,9.810441
1770803068.8081195,0.000227,-0.001546,0.000196,-0.013653,-0.092814,9.797273
1770803068.8155177,-0.000838,0.004846,0.000463,-0.03161,-0.091617,9.799667
1770803068.8217835,-0.001371,5.2e-05,-0.000336,-0.047172,-0.0988,9.814032
1770803068.823619,-3.9e-05,-0.00341,-0.000336,-0.06034,-0.099997,9.818821
1770803068.8283446,0.000227,5.2e-05,-7e-05,-0.042384,-0.101194,9.80685
1770803068.8336291,0.000227,0.002715,0.000729,-0.032807,-0.092814,9.816426
1770803068.8432543,0.002358,-0.005008,-0.000603,-0.041187,-0.083238,9.812835
1770803068.8440797,-0.002436,0.007509,0.000196,-0.0364,-0.089224,9.804454
1770803068.8534503,-0.001903,-0.000214,-0.000336,-0.039989,-0.085632,9.816426
1770803068.8546133,0.000494,0.001384,0.000729,-0.037595,-0.095208,9.803258
1770803068.859568,0.001026,-0.00341,-7e-05,-0.019639,-0.096406,9.816426
1770803068.8641365,-0.001637,0.002715,0.000995,-0.03161,-0.099997,9.814032
1770803068.8696563,0.000494,-0.000481,-0.000869,-0.047172,-0.089223,9.817624
1770803068.8740606,-0.000305,-0.000747,0.000196,-0.057946,-0.095208,9.800864
1770803068.879044,-3.9e-05,0.004313,0.000463,-0.03999,-0.086829,9.803258
1770803068.8843796,0.00076,0.000585,-0.000603,-0.032807,-0.091617,9.797273
1770803068.8891618,0.001825,-0.002611,0.000196,-0.029216,-0.085632,9.809244
1770803068.894477,-0.001104,0.00378,0.000463,-0.036399,-0.094012,9.817623
1770803068.9052536,0.001559,-0.00341,-0.000336,-0.047172,-0.084435,9.824806
1770803068.9056783,-3.9e-05,-0.00128,-0.000603,-0.043581,-0.108377,9.820018
1770803068.909389,-0.000305,-0.001013,-0.000869,-0.029215,-0.095208,9.799667
1770803068.9145494,-3.9e-05,-0.000214,-7e-05,-0.039989,-0.096406,9.800864
1770803068.92155,0.00076,0.000851,-7e-05,-0.043581,-0.089223,9.809244
1770803068.9246228,0.001026,-0.001546,-0.000869,-0.045975,-0.088026,9.817624
1770803068.9298546,-0.000838,0.00165,-7e-05,-0.054355,-0.096406,9.816426
1770803068.9351435,-0.001903,0.005112,0.000729,-0.026822,-0.0988,9.81882
1770803068.9543307,-0.004034,0.010705,0.000995,-0.04119,-0.099998,9.803256
1770803068.9549294,-0.001371,0.002715,-0.000603,-0.03161,-0.084435,9.796076
1770803068.9551785,-0.000838,0.000851,-0.000336,-0.03161,-0.101194,9.805653
1770803068.9555328,0.003157,-0.003144,0.000463,-0.02323,-0.095209,9.803258
1770803068.9605117,0.001026,-0.000747,-0.000603,-0.028018,-0.079646,9.831989
1770803068.9665127,0.000227,-0.002611,0.000729,-0.045975,-0.073661,9.81882
1770803068.9713213,0.001026,-0.002877,-0.001135,-0.056749,-0.088026,9.821214
1770803068.9777596,-3.9e-05,-0.00128,0.000463,-0.044778,-0.086829,9.815229
1770803068.9802883,-3.9e-05,-0.000481,-0.001135,-0.049566,-0.086829,9.802061
1770803068.986738,-0.000838,-0.001812,-0.000336,-0.035201,-0.084435,9.808046
1770803068.9914863,-3.9e-05,0.004579,-7e-05,-0.03161,-0.086829,9.808046
1770803068.995802,0.002091,-0.001013,0.000196,-0.03161,-0.088026,9.831988
1770803069.0005114,0.000494,-0.002611,-7e-05,-0.03161,-0.09042,9.823609
1770803069.0071425,0.000227,0.001916,-0.000603,-0.053158,-0.091617,9.822411
1770803069.0106642,0.002091,-0.002345,-0.000603,-0.045975,-0.09042,9.79009
1770803069.0160353,0.00076,0.000585,-7e-05,-0.050763,-0.095209,9.792484
1770803069.0210822,-0.001637,0.00378,0.000729,-0.042384,-0.095209,9.791287
1770803069.0259683,0.000227,-0.00341,-0.000603,-0.043581,-0.0988,9.826003
1770803069.0333433,-0.000305,-0.000214,0.000463,-0.039989,-0.09042,9.821214
1770803069.035737,0.004755,-0.008736,-7e-05,-0.041189,-0.08683,9.816424
1770803069.0428023,0.001559,-0.002877,-0.000869,-0.024427,-0.095209,9.820017
1770803069.04832,-0.000838,0.000585,-0.001135,-0.037595,-0.103588,9.806849
1770803069.0563493,-0.001637,0.005911,0.000995,-0.024428,-0.091617,9.80206
1770803069.0567596,-0.001371,0.003514,-7e-05,-0.037596,-0.09042,9.804455
1770803069.0621712,-0.001104,-0.001546,-0.000869,-0.042384,-0.091617,9.808046
1770803069.0668986,0.003423,-0.004742,-0.000869,-0.036399,-0.085632,9.824805
1770803069.0733564,-0.000305,0.003514,0.000463,-0.042384,-0.101194,9.808046
1770803069.0759814,-3.9e-05,0.001384,-0.000336,-0.044778,-0.101194,9.815229
1770803069.081271,0.001026,-0.001546,-0.000869,-0.054355,-0.102391,9.81044
1770803069.0869672,-0.002969,0.003514,0.000729,-0.049567,-0.096406,9.797272
1770803069.0912373,-0.00217,-0.00128,0.000196,-0.034004,-0.101194,9.81044
1770803069.0963974,0.001026,-0.000214,0.000463,-0.022033,-0.085632,9.817623
1770803069.1028142,-3.9e-05,0.003514,0.000995,-0.03999,-0.094011,9.826003
1770803069.107312,0.001293,-0.00634,-0.001135,-0.048371,-0.092814,9.828396
1770803069.1121793,-0.001637,-0.002877,-7e-05,-0.059143,-0.073661,9.821214
1770803069.1170776,0.00076,-0.002345,0.000196,-0.025624,-0.09042,9.803258
1770803069.1220238,-0.000838,-0.000481,-0.000336,-0.01485,-0.08204,9.792484
1770803069.1277215,0.001293,0.000851,-0.000603,-0.038792,-0.089223,9.804455
1770803069.132119,-0.003501,0.003514,0.000463,-0.067523,-0.089223,9.814031
1770803069.1377203,0.000494,-0.001546,0.000729,-0.062734,-0.099997,9.810441
1770803069.142254,0.004488,-0.002345,0.000463,-0.026821,-0.096406,9.822411
1770803069.1500633,0.000227,0.001384,0.000729,-0.002879,-0.091617,9.804455
1770803069.1586812,-0.0043,0.012036,0.000196,-0.007673,-0.091619,9.793678
1770803069.1593792,0.001559,-0.00634,-0.001135,-0.049568,-0.09042,9.81044
1770803069.1621037,0.000494,-0.00634,-0.000336,-0.066327,-0.094012,9.805651
1770803069.1701927,-0.001903,0.001916,-7e-05,-0.03161,-0.083238,9.823609
1770803069.1720505,-0.001104,0.006177,0.001262,-0.016049,-0.07007,9.811637
1770803069.178294,-0.001903,0.004846,0.000463,-0.031611,-0.084435,9.809243
1770803069.1826482,-3.9e-05,-0.000747,0.000196,-0.069917,-0.085632,9.822412
1770803069.189562,0.000227,-0.004209,-0.000336,-0.057947,-0.086829,9.81044
1770803069.1923428,-0.001637,0.001117,0.000729,-0.037595,-0.088026,9.799667
1770803069.197976,0.002091,-0.005541,-0.001135,0.000711,-0.101194,9.816425
1770803069.2028291,0.00289,-0.002611,0.000196,-0.019639,-0.089223,9.821214
1770803069.2081091,0.00076,-0.006872,-0.001135,-0.063933,-0.096406,9.816425
1770803069.2129645,0.003689,-0.006872,0.000196,-0.068721,-0.095209,9.815228
1770803069.2178202,0.00076,-0.003144,-0.000336,-0.047172,-0.086829,9.812835
1770803069.2231922,-0.00217,0.000585,-0.000869,-0.025624,-0.080843,9.792484
1770803069.2279637,0.001559,-0.001546,-0.000603,-0.025624,-0.077252,9.802061
1770803069.233185,0.002091,-0.006872,-0.000869,-0.037597,-0.095209,9.811636
1770803069.240237,0.000227,-0.002611,0.000196,-0.066326,-0.09042,9.817623
1770803069.24311,-3.9e-05,0.000851,-7e-05,-0.045975,-0.095209,9.840368
1770803069.250949,0.000227,0.001117,0.000463,-0.010062,-0.0988,9.811637
1770803069.2532053,-0.005099,0.008042,0.000729,-0.011261,-0.085633,9.810438
1770803069.261311,-3.9e-05,0.002449,-0.000336,-0.042384,-0.083238,9.80206
1770803069.2633324,-0.001637,0.00165,-7e-05,-0.056749,-0.097603,9.809243
1770803069.268731,0.001026,-0.004742,-0.000603,-0.049567,-0.094012,9.806848
1770803069.2740366,-0.003767,0.004846,0.000196,-0.038793,-0.092815,9.826002
1770803069.2788134,-0.001371,0.006976,0.001262,-0.030414,-0.094012,9.829593
1770803069.2833974,-0.000572,0.002715,-0.000336,-0.044778,-0.092814,9.815228
1770803069.289093,0.001026,-0.003144,0.000196,-0.044778,-0.095209,9.799666
1770803069.2936282,0.001825,-0.001812,0.000463,-0.041187,-0.085632,9.784104
1770803069.2985833,-0.001371,-0.00128,-0.000603,-0.029216,-0.089223,9.80206
1770803069.3069525,0.001026,0.001117,0.000995,-0.018442,-0.091617,9.806849
1770803069.3084784,0.002358,-0.002611,0.000196,-0.024427,-0.09042,9.827199
1770803069.314976,-0.001371,0.000318,-0.000336,-0.061537,-0.094011,9.824805
1770803069.3198535,0.000227,0.001384,0.000463,-0.049566,-0.092814,9.814031
1770803069.3245218,-0.000838,0.00378,0.000995,-0.023231,-0.088026,9.799666
1770803069.3292565,-3.9e-05,-0.000214,-7e-05,-0.029216,-0.079646,9.80206
1770803069.33527,0.001559,-0.002079,-7e-05,-0.051961,-0.101194,9.797272
1770803069.3391583,0.004222,-0.003676,-0.000603,-0.049567,-0.096406,9.827199
1770803069.34557,0.001026,-0.002345,-0.000869,-0.03161,-0.104785,9.822411
1770803069.3492155,0.000227,0.002183,-0.000336,-0.018442,-0.091617,9.814031
1770803069.3565042,-0.002436,0.00378,-0.000603,-0.026822,-0.102392,9.796075
1770803069.365099,0.000494,-0.001812,0.000995,-0.041187,-0.096406,9.804455
1770803069.366307,-0.000305,-0.000481,0.000463,-0.057946,-0.09042,9.815228
1770803069.3695605,0.000494,-0.001812,-0.000336,-0.049567,-0.0988,9.822411
1770803069.3744504,0.000494,0.00165,0.000729,-0.022033,-0.086829,9.808046
1770803069.3795676,0.001825,0.00165,0.000196,-0.037595,-0.095208,9.821214
1770803069.3853161,-3.9e-05,0.000851,-0.000603,-0.047172,-0.088026,9.808046
1770803069.3913715,-0.003767,0.003514,0.000463,-0.053158,-0.092815,9.80206
1770803069.3967488,-0.000305,-0.000747,-7e-05,-0.036398,-0.102391,9.797272
1770803069.4000154,-0.000572,0.002981,0.000196,-0.004077,-0.086829,9.794878
1770803069.405186,-0.000572,0.00378,0.000995,-0.012457,-0.095209,9.821214
1770803069.4101534,0.002091,-0.004742,-0.000336,-0.045976,-0.101194,9.820016
1770803069.4149983,-3.9e-05,0.001117,-7e-05,-0.0771,-0.10718,9.822411
1770803069.422945,-0.000838,5.2e-05,-0.000869,-0.061537,-0.097603,9.817623
1770803069.4252963,0.000227,0.001384,0.000463,-0.03161,-0.102391,9.808046
1770803069.4305308,0.003157,-0.001013,0.000463,-0.022033,-0.084435,9.797272
1770803069.4385161,-0.003501,0.009639,0.000729,-0.04119,-0.101195,9.800861
1770803069.4404604,-0.000305,0.000851,-0.000336,-0.049566,-0.091617,9.821214
1770803069.4468133,0.00076,-0.002345,-0.000603,-0.056749,-0.097603,9.826002
1770803069.4504547,0.000494,0.001384,-0.000336,-0.030413,-0.085632,9.829594
1770803069.4559004,-0.000838,-0.000747,-0.000603,-0.011259,-0.086829,9.797272
1770803069.465743,-0.000838,0.001916,-7e-05,-0.028019,-0.085632,9.80206
1770803069.4657917,0.001825,-0.000747,0.000463,-0.057946,-0.077252,9.806849
1770803069.471485,-0.001903,-0.000214,0.000463,-0.059143,-0.104785,9.793681
1770803069.4775178,-0.000838,-0.002079,-0.000336,-0.044778,-0.099997,9.81044
1770803069.4807668,-0.001104,0.000585,-0.000869,-0.030413,-0.084435,9.829594
1770803069.4877717,0.00076,-0.000214,-0.000869,-0.037595,-0.086829,9.820017
1770803069.4942622,-0.001371,0.000585,0.000196,-0.041187,-0.10718,9.806849
1770803069.4962366,0.000227,-0.00341,-7e-05,-0.043581,-0.085632,9.80206
1770803069.5024397,-0.001104,0.002449,0.000729,-0.035202,-0.095209,9.796074
1770803069.507234,-3.9e-05,0.001384,-7e-05,-0.019639,-0.099997,9.811637
1770803069.5114331,0.001293,0.002715,0.000463,-0.041187,-0.092814,9.815228
1770803069.516165,0.001293,-0.002877,-7e-05,-0.061538,-0.101194,9.828396
1770803069.5214086,0.00076,-0.002078,-7e-05,-0.050764,-0.096406,9.812834
1770803069.5261304,-0.001104,5.2e-05,-0.000603,-0.02323,-0.089223,9.808045
1770803069.531637,0.000494,0.006177,0.000463,-0.016049,-0.080843,9.802059
1770803069.5374277,-0.001104,0.00378,-0.000336,-0.037596,-0.096406,9.804454
1770803069.5438185,-3.9e-05,-0.001546,-0.000336,-0.063932,-0.099997,9.814031
1770803069.5474343,-0.000305,-0.001013,-0.000603,-0.044778,-0.102391,9.818819
1770803069.5530136,0.001026,-0.00341,-0.000869,-0.012457,-0.078449,9.820016
1770803069.5584633,-0.000838,0.005378,0.000463,-0.014852,-0.09042,9.81403
1770803069.568748,-0.000305,5.2e-05,0.000196,-0.053158,-0.097603,9.803257
1770803069.5688024,0.000227,-0.001812,-7e-05,-0.091465,-0.097603,9.800863
1770803069.5714993,0.001559,-0.004209,-0.000603,-0.03999,-0.096406,9.805651
1770803069.576669,0.000227,0.00378,0.000729,-0.007668,-0.089223,9.812834
1770803069.581764,-0.000572,0.005112,0.000196,-0.000486,-0.091617,9.82241
1770803069.5871847,-0.003501,0.008042,0.001528,-0.048372,-0.096406,9.824803
1770803069.595244,-0.003501,0.001916,0.000463,-0.072312,-0.0988,9.810439
1770803069.5973659,0.000227,-0.003676,0.000196,-0.066326,-0.080843,9.814031
1770803069.60226,0.001559,-0.00128,0.000196,0.003106,-0.078449,9.79368
1770803069.6068864,-3.9e-05,0.004047,-0.000336,-0.007669,-0.077252,9.791286
1770803069.6133559,-3.9e-05,0.002715,0.000463,-0.037596,-0.095209,9.814031
1770803069.6196592,0.00076,-0.003144,-7e-05,-0.067523,-0.099997,9.828396
1770803069.6225646,-0.002969,0.002715,0.000463,-0.063932,-0.0988,9.818819
1770803069.627091,-0.000572,0.008042,0.002061,-0.001685,-0.101194,9.815227
1770803069.6323404,-3.9e-05,0.001916,0.000463,0.001909,-0.092814,9.794877
1770803069.6382558,0.001293,-0.002877,-0.000336,-0.028019,-0.0988,9.80206
1770803069.643121,-0.000305,5.2e-05,0.000196,-0.06034,-0.080843,9.809242
1770803069.647516,-0.001903,-0.000747,0.000196,-0.072311,-0.091617,9.814031
1770803069.653713,-0.002702,0.008042,0.000196,-0.019641,-0.07845,9.810438
1770803069.6609104,0.000227,-0.002611,0.000196,-0.006471,-0.085632,9.816425
1770803069.6626387,0.000494,0.000318,0.000196,-0.012456,-0.095209,9.799666
1770803069.6713936,-0.000572,0.004313,0.000196,-0.057947,-0.096406,9.80206
1770803069.6727157,-0.001104,-0.001013,0.000463,-0.065129,-0.089223,9.81044
1770803069.6782792,0.000227,-0.002078,-0.000603,-0.037596,-0.086829,9.800863
1770803069.6831906,-0.001903,0.00165,0.000196,-0.004077,-0.088026,9.811637
1770803069.6888285,0.001825,0.002982,0.000729,-0.010063,-0.088026,9.809242
1770803069.6943533,-0.001903,0.004579,0.000729,-0.05675,-0.082041,9.812833
1770803069.6980264,0.000227,-0.002611,-7e-05,-0.072312,-0.083238,9.814031
1770803069.703488,0.001026,-0.001812,0.000729,-0.057946,-0.094012,9.805651
1770803069.7107568,-0.001104,-0.001812,-7e-05,-0.016048,-0.088026,9.809242
1770803069.7131772,-0.001371,0.004846,0.000729,-0.012457,-0.082041,9.805651
1770803069.7196822,0.001825,0.001117,0.000196,-0.044778,-0.097603,9.818819
1770803069.7244387,-3.9e-05,0.001117,0.000729,-0.065129,-0.101194,9.83079
1770803069.7297332,0.001293,-0.002078,-7e-05,-0.055552,-0.101194,9.815228
1770803069.7354014,-0.000305,0.000851,-7e-05,-0.013654,-0.086829,9.809242
1770803069.738664,0.000494,0.000851,-0.000603,-0.016048,-0.088026,9.788892
1770803069.743416,0.00076,0.003248,0.000463,-0.037596,-0.095209,9.814031
1770803069.748747,-0.003767,0.002715,-0.000869,-0.066326,-0.089223,9.817622
1770803069.7551355,-0.000305,-0.00341,-7e-05,-0.05675,-0.086829,9.815228
1770803069.7592854,0.000494,0.00165,-7e-05,-0.035201,-0.077252,9.815228
1770803069.765387,0.000227,-0.002078,-0.000869,-0.020836,-0.096406,9.808045
1770803069.773668,0.001559,-0.001013,-0.000336,-0.028019,-0.095209,9.806848
1770803069.7751079,0.001825,-0.001812,-0.000603,-0.051961,-0.095209,9.810439
1770803069.779783,-0.000838,-0.00128,-7e-05,-0.04837,-0.096406,9.800862
1770803069.7848325,0.001293,0.000585,-0.000336,-0.03161,-0.094012,9.820016
1770803069.7932324,-3.9e-05,0.002715,0.000196,-0.034005,-0.091617,9.824804
1770803069.7943056,-0.000305,0.003248,0.001262,-0.047173,-0.0988,9.818819
1770803069.8000758,0.003423,-0.006872,-7e-05,-0.049568,-0.091618,9.820015
1770803069.8044977,-3.9e-05,-0.003676,-0.000603,-0.049567,-0.095209,9.803256
1770803069.809261,-0.001371,0.004047,-0.000336,-0.035202,-0.091618,9.804453
1770803069.8146214,-0.000305,0.000585,-7e-05,-0.030413,-0.088026,9.809242
1770803069.8201683,0.002624,-0.005541,-0.001135,-0.025626,-0.095209,9.816424
1770803069.8259225,0.001293,5.2e-05,0.000196,-0.042384,-0.094012,9.828396
1770803069.8322186,-0.000305,-0.003144,-0.000869,-0.051961,-0.091617,9.821213
1770803069.8368406,-0.000305,-0.001546,-7e-05,-0.041187,-0.095209,9.808045
1770803069.8442564,0.000494,0.003248,0.000196,-0.030413,-0.099997,9.804453
1770803069.8448403,-0.001371,0.001384,-0.000603,-0.024428,-0.076055,9.804454
1770803069.850494,-0.002702,0.00378,-0.000336,-0.051961,-0.091618,9.81403
1770803069.8551776,-0.001903,0.005112,-0.000336,-0.059144,-0.097603,9.818818
1770803069.8605442,0.00076,0.001117,0.000995,-0.041187,-0.095209,9.821213
1770803069.865368,-0.001104,0.001916,-7e-05,-0.037596,-0.096406,9.810439
1770803069.8758736,-0.000838,0.000585,0.000196,-0.019639,-0.092814,9.797271
1770803069.8759165,0.000494,-0.002078,0.000196,-0.018442,-0.079646,9.805651
1770803069.880135,0.001825,-0.006606,-0.001402,-0.02802,-0.083238,9.804453
1770803069.8872848,0.001293,-0.002078,-0.000336,-0.047173,-0.084435,9.798468
1770803069.8911278,0.00076,0.001384,0.000729,-0.043581,-0.089223,9.811636
1770803069.89561,-3.9e-05,0.001916,0.000995,-0.041187,-0.079646,9.817622
1770803069.901048,-0.000305,0.002449,-7e-05,-0.03161,-0.088026,9.810439
1770803069.9066386,-0.001371,0.000851,-0.001135,-0.043581,-0.085632,9.805651
1770803069.9114714,-0.001637,0.000851,-0.000336,-0.050764,-0.097603,9.800862
1770803069.9163094,0.001559,-0.004209,0.000196,-0.042385,-0.097603,9.80565
1770803069.923337,-0.002968,0.003248,0.000196,-0.023231,-0.0988,9.811636
1770803069.927921,-0.001371,0.003248,-0.000336,-0.010063,-0.095209,9.816424
1770803069.932112,-0.000838,0.004313,0.001262,-0.025625,-0.089223,9.816424
1770803069.9390361,-0.003501,0.00165,-7e-05,-0.04837,-0.09042,9.809242
1770803069.9414632,0.00076,-0.003676,-0.000336,-0.05675,-0.09042,9.81403
1770803069.9458385,-0.00217,0.00165,0.000463,-0.044778,-0.088026,9.798468
1770803069.951318,0.004488,-0.004475,0.000196,-0.014851,-0.08683,9.81403
1770803069.9560418,-0.001104,0.004047,0.000463,-0.038793,-0.094012,9.811636
1770803069.9610653,0.001026,-0.001812,-0.000336,-0.053158,-0.088026,9.831987
1770803069.9684408,-3.9e-05,-0.006872,-0.001135,-0.049568,-0.095209,9.822409
1770803069.971582,0.002624,-0.00341,-7e-05,-0.028019,-0.092815,9.820016
1770803069.9792433,-0.002968,0.003248,-0.000336,-0.006471,-0.089223,9.81403
1770803069.9811878,-0.001104,0.004313,0.000729,-0.030414,-0.097603,9.787694
1770803069.9874098,0.001559,-0.002877,0.000196,-0.062735,-0.092815,9.788891
1770803069.9919693,0.001559,-0.00341,-0.001135,-0.062735,-0.091617,9.811636
1770803069.9963984,0.000227,-0.000214,0.000463,-0.055552,-0.096406,9.817622
1770803070.0015428,0.00076,-0.00128,-7e-05,-0.020836,-0.079646,9.82241
1770803070.0076048,-0.001104,0.002449,0.000196,-0.024428,-0.078449,9.809242
1770803070.0121613,0.00076,5.2e-05,0.000463,-0.049567,-0.091617,9.810439
1770803070.0168178,0.00076,5.2e-05,0.000196,-0.050764,-0.089223,9.808045
1770803070.0222495,0.00076,-0.000747,-0.000336,-0.043581,-0.086829,9.81403
1770803070.026588,0.000227,0.002183,0.000995,-0.022034,-0.099997,9.803256
1770803070.0325162,0.000227,0.000585,0.000196,-0.020836,-0.094012,9.823607
1770803070.0380414,-0.004034,0.014433,0.001262,-0.039997,-0.110773,9.816421
1770803070.0423055,0.002092,-0.00341,-0.000336,-0.051961,-0.096406,9.817621
1770803070.0471137,0.000494,5.2e-05,0.000995,-0.053158,-0.09042,9.808045
1770803070.0518582,-0.001637,0.002183,0.000196,-0.042384,-0.099997,9.803256
1770803070.057365,-0.001104,-0.000214,0.000196,-0.037596,-0.089223,9.816424
1770803070.062805,-0.000838,-0.001546,-0.000336,-0.047173,-0.094012,9.812833
1770803070.080763,-0.003501,0.003514,0.000463,-0.037596,-0.089224,9.823606
1770803070.0808737,-0.002436,0.005378,0.000729,-0.041188,-0.092815,9.827197
1770803070.0809093,-3.9e-05,0.000851,-0.000336,-0.034005,-0.089223,9.812833
1770803070.081996,0.00076,-0.000214,0.000196,-0.041187,-0.102391,9.803256
1770803070.089474,-3.9e-05,-0.001013,-7e-05,-0.047173,-0.095209,9.815227
1770803070.0921729,-0.000572,-0.000747,-7e-05,-0.034004,-0.094012,9.811636
1770803070.097669,0.003423,-0.007937,-0.001135,-0.044781,-0.097604,9.810437
1770803070.1043296,0.001825,0.001117,0.000463,-0.035202,-0.092814,9.817621
1770803070.1076071,0.000494,-0.001013,-7e-05,-0.059144,-0.089223,9.810439
1770803070.1132197,-0.001637,0.004047,0.000463,-0.045976,-0.097603,9.809241
1770803070.1178792,-0.000305,0.001384,0.000995,-0.020836,-0.088026,9.79727
1770803070.124244,0.001026,0.000585,0.000463,-0.016048,-0.099997,9.802059
1770803070.128327,0.000227,-0.002611,-0.001135,-0.035202,-0.088026,9.794876
1770803070.1334658,-0.00217,0.002183,0.000196,-0.050764,-0.083238,9.812833
1770803070.1392808,0.001026,-0.001812,-0.000603,-0.069918,-0.086829,9.829592
1770803070.1447887,-0.001104,0.001384,0.000463,-0.055552,-0.094012,9.806847
1770803070.14939,-0.001637,-0.003144,-0.000336,-0.028019,-0.088026,9.79727
1770803070.153272,0.002624,-0.004209,-0.000603,-0.032808,-0.076055,9.808044
1770803070.1584468,0.001026,-0.004209,-0.000603,-0.036399,-0.092815,9.820015
1770803070.1641304,0.000494,0.001117,0.001262,-0.044778,-0.092814,9.809241
1770803070.1683223,0.00076,-0.002078,-0.000869,-0.028019,-0.091617,9.826001
1770803070.1755936,-0.000572,0.003514,0.000729,-0.025625,-0.095209,9.80565
1770803070.1830144,-3.9e-05,-0.001013,-0.000603,-0.026822,-0.103588,9.815227
1770803070.1855683,0.000227,0.001384,-0.000336,-0.03999,-0.089223,9.804453
1770803070.1881309,0.00076,-0.004209,0.000196,-0.051962,-0.086829,9.806847
1770803070.1932642,-0.001637,0.001117,-7e-05,-0.044778,-0.091617,9.803256
1770803070.2004519,-0.00217,0.004313,0.000729,-0.032808,-0.096406,9.811635
1770803070.2037148,-3.9e-05,5.2e-05,0.000196,-0.034004,-0.085632,9.81403
1770803070.209041,0.001559,-0.003144,0.000196,-0.044779,-0.092815,9.817621
1770803070.2140665,0.001293,0.002982,0.000196,-0.034005,-0.0988,9.80565
1770803070.2203257,0.001559,-0.000481,0.000463,-0.023231,-0.102391,9.806847
1770803070.2237449,0.00076,0.000318,-0.000336,-0.023231,-0.094012,9.802059
1770803070.2289565,0.002358,-0.005274,0.000463,-0.026823,-0.085632,9.806847
1770803070.2340856,-0.000838,0.001117,0.000463,-0.050764,-0.083238,9.802059
1770803070.2395515,-0.002436,0.005645,-7e-05,-0.062736,-0.101195,9.824803
1770803070.246846,-0.000572,-0.005274,-0.001934,-0.042385,-0.09042,9.806847
1770803070.261882,-0.000305,-0.00128,-0.000869,-0.034005,-0.077252,9.788891
1770803070.2623544,0.001825,-0.000747,0.000196,-0.038793,-0.088026,9.80565
1770803070.2626317,-0.000838,0.000585,-7e-05,-0.045975,-0.104786,9.79727
1770803070.2650557,0.00076,-0.001546,-7e-05,-0.051961,-0.110771,9.810438
1770803070.2705708,0.00076,-0.002078,0.000196,-0.019639,-0.105983,9.828395
1770803070.279867,0.00076,-0.001812,-0.000336,-0.001683,-0.096406,9.80565
1770803070.288089,0.001026,-0.002611,-0.000869,-0.03999,-0.096406,9.810438
1770803070.2881951,-0.000838,-0.002611,-0.000603,-0.05675,-0.083238,9.811636
1770803070.29091,-0.000305,-0.002345,0.000463,-0.067524,-0.101194,9.803256
1770803070.2962651,-0.000305,-0.001013,-0.000336,-0.037596,-0.09042,9.808044
1770803070.3003511,-0.001104,0.004313,-0.000336,-0.01964,-0.090421,9.798467
1770803070.3061152,0.001559,-0.001546,0.000196,-0.032807,-0.086829,9.820015
1770803070.3105383,-0.001104,0.002449,-7e-05,-0.051961,-0.079647,9.826001
1770803070.3167589,0.000227,-0.002078,-0.000336,-0.042384,-0.097603,9.820015
1770803070.32276,-3.9e-05,-0.003144,-7e-05,-0.017246,-0.097603,9.811635
1770803070.3250134,0.001026,0.002982,0.000196,-0.012457,-0.095209,9.798467
1770803070.3307028,0.000227,0.003514,0.000196,-0.045976,-0.101194,9.799664
1770803070.3378844,-0.000838,-0.001812,-0.000603,-0.057947,-0.089223,9.818818
1770803070.3419387,-0.001104,-0.000214,0.000729,-0.063932,-0.104786,9.821212
1770803070.345112,-0.000572,0.000585,-0.000603,-0.032808,-0.09042,9.810438
1770803070.3502338,0.001293,-0.001812,-0.000603,-0.014851,-0.092815,9.800861
1770803070.355334,0.001293,0.002449,0.000196,-0.017245,-0.095209,9.800861
1770803070.360668,0.00289,-0.004475,-0.000336,-0.031611,-0.10718,9.803255
1770803070.3654764,0.001559,-0.006606,0.000463,-0.045977,-0.088027,9.800861
1770803070.3721805,-0.000572,-0.002877,-0.000603,-0.038793,-0.085632,9.803255
1770803070.3775306,-0.001371,0.006177,0.000729,-0.024429,-0.074858,9.80924
1770803070.3822334,-0.00217,0.002449,0.000463,-0.038793,-0.094012,9.809241
1770803070.3918502,-0.000838,-0.002078,-0.001668,-0.051961,-0.095209,9.814029
1770803070.3921888,-0.000838,0.000851,0.000463,-0.044779,-0.097603,9.794876
1770803070.3954487,-0.004034,0.005911,0.000196,-0.030414,-0.094012,9.802057
1770803070.4011312,0.000494,0.000851,0.000463,-0.018442,-0.096406,9.820015
1770803070.4060798,0.00076,0.002715,0.000729,-0.022034,-0.099997,9.816423
1770803070.411176,-0.000572,-0.002078,-0.000336,-0.03999,-0.091617,9.812832
1770803070.4191415,-0.000305,5.2e-05,0.000196,-0.03999,-0.086829,9.817621
1770803070.4213898,-0.001637,0.000851,0.000729,-0.038793,-0.092815,9.800861
1770803070.4265113,0.003157,-0.006073,-0.000336,-0.019641,-0.095209,9.803255
1770803070.4322865,0.001026,-0.003144,-7e-05,-0.044779,-0.089223,9.798467
1770803070.4395976,-0.000838,-0.002345,-7e-05,-0.051961,-0.089223,9.827197
1770803070.4415736,0.001293,-0.000481,-7e-05,-0.023231,-0.094012,9.817621
1770803070.4464343,0.002358,-0.002611,-0.000603,-0.018443,-0.088026,9.815226
1770803070.451479,0.00289,-0.004475,-0.000603,-0.023231,-0.092815,9.814029
1770803070.4569106,-0.00217,0.002715,-0.000336,-0.05675,-0.099997,9.805649
1770803070.463982,-0.000305,-0.002345,-0.000603,-0.063932,-0.105983,9.808044
1770803070.468746,0.00076,-0.003144,-0.000603,-0.030414,-0.089223,9.796073
1770803070.471789,-0.001637,0.005112,0.000729,-0.014852,-0.096406,9.804452
1770803070.4797816,-3.9e-05,0.002982,0.000196,-0.01964,-0.092815,9.81762
1770803070.481965,-0.000572,-0.00341,-0.000336,-0.060341,-0.091617,9.809241
1770803070.4902723,-0.000572,-0.00341,-0.000869,-0.069918,-0.102391,9.814029
1770803070.492317,0.001825,-0.003144,-7e-05,-0.049567,-0.097603,9.806847
1770803070.4990618,-0.000572,0.002715,0.000196,-0.016048,-0.082041,9.791284
1770803070.5026464,-0.001371,0.002715,-7e-05,-0.031611,-0.088026,9.78889
1770803070.5075958,-0.000572,-0.000481,-7e-05,-0.053158,-0.078449,9.800861
1770803070.5121787,0.00076,-0.007405,-0.000869,-0.068722,-0.096406,9.815226
1770803070.526757,-0.000305,0.001384,0.000463,-0.038793,-0.085632,9.828395
1770803070.531069,-0.000305,0.002715,0.000729,-0.005274,-0.080844,9.809241
1770803070.531966,-0.00217,0.005378,0.000729,-0.005275,-0.083238,9.799664
1770803070.5326047,0.000494,-0.001546,0.000196,-0.05675,-0.091618,9.798467
1770803070.5389588,0.001026,-0.004209,-7e-05,-0.077101,-0.094012,9.809241
1770803070.5448947,0.000494,-0.002345,-0.000603,-0.050764,-0.096406,9.826
1770803070.547439,-0.000838,0.004047,-7e-05,-0.014852,-0.089223,9.802058
1770803070.552941,-0.000838,0.004047,-0.000336,-0.024428,-0.085632,9.814029
1770803070.5579343,0.000227,-0.000481,-7e-05,-0.050764,-0.094012,9.815226
1770803070.5651286,0.001825,-0.002345,0.000995,-0.069918,-0.10718,9.806847
1770803070.568819,0.00076,-0.002611,0.000196,-0.055553,-0.101194,9.803255
1770803070.573045,0.000227,-0.002345,-0.000869,0.004302,-0.088026,9.792481
1770803070.577615,0.00076,0.005112,0.000729,-0.000487,-0.083238,9.804452
1770803070.5834882,-3.9e-05,-0.004209,-0.000603,-0.060341,-0.102391,9.826
1770803070.595523,0.001825,-0.002078,0.000463,-0.083086,-0.101194,9.821212
1770803070.59565,-0.000305,-0.00341,-0.000603,-0.062735,-0.089223,9.822409
1770803070.5984027,-0.000305,0.001916,0.000196,-0.00288,-0.09042,9.78889
1770803070.6035998,0.001293,0.002449,-7e-05,-0.007669,-0.082041,9.794875
1770803070.6092818,-3.9e-05,-0.000481,-7e-05,-0.034005,-0.104786,9.809241
1770803070.6139758,-0.001104,-0.000747,0.000463,-0.0771,-0.0988,9.815226
1770803070.618314,0.00076,-0.00634,-0.000336,-0.056751,-0.103589,9.822408
1770803070.623667,-0.00217,0.000851,-7e-05,-0.030413,-0.083238,9.80924
1770803070.6287491,0.000494,0.002982,0.000196,-0.008866,-0.094012,9.794875
1770803070.6354928,-3.9e-05,-0.001013,-7e-05,-0.032808,-0.084435,9.803255
1770803070.6385415,0.000494,-0.005274,-0.000336,-0.068722,-0.114363,9.814029
1770803070.6434984,0.000494,-0.00341,-0.000869,-0.057947,-0.097603,9.81762
1770803070.6485763,-0.001371,0.005378,-0.000336,-0.030414,-0.090421,9.811634
1770803070.6541262,0.001293,-0.000214,-7e-05,-0.01964,-0.091618,9.815226
1770803070.66048,-0.001104,0.004579,0.000463,-0.026823,-0.092815,9.820014
1770803070.6635697,0.002358,-0.002345,0.000196,-0.054356,-0.102392,9.816423
1770803070.6693306,-0.000838,0.002449,0.000995,-0.042385,-0.094012,9.803255
1770803070.6758628,0.001559,-0.000214,-0.000336,-0.014851,-0.092815,9.804452
1770803070.6793516,0.003423,-0.005008,-0.000869,-0.016049,-0.084435,9.805649
1770803070.6843748,0.002624,-0.005274,-0.001135,-0.04478,-0.091618,9.833182
1770803070.6954973,0.001559,-0.000481,0.000196,-0.08548,-0.10718,9.822409
1770803070.6955419,-0.000572,-0.003943,-0.000336,-0.081889,-0.078449,9.816423
1770803070.6989934,0.001825,-0.003943,-0.000869,-0.024429,-0.094012,9.802058
1770803070.707579,-0.000305,-0.004742,-0.001402,-0.004078,-0.079646,9.800861
1770803070.7091224,0.001559,-0.004742,-0.001135,-0.016049,-0.091618,9.804452
1770803070.7139945,-0.003235,0.002982,0.000196,-0.044779,-0.085632,9.816423
1770803070.7216249,-0.00217,0.004846,0.001262,-0.04478,-0.091618,9.814028
1770803070.7242584,0.001559,0.001916,0.000463,-0.030414,-0.097603,9.81762
1770803070.7294533,-0.001104,0.001117,0.000463,-0.016048,-0.082041,9.79727
1770803070.7367928,-0.000838,0.00378,-0.000336,-0.042385,-0.091618,9.799664
1770803070.740753,0.002358,-0.007138,-0.001668,-0.065131,-0.095209,9.817619
1770803070.7447217,-0.001104,5.2e-05,-0.000336,-0.067524,-0.099997,9.803255
1770803070.7512515,0.00076,-0.002078,0.000196,-0.032808,-0.096406,9.812832
1770803070.7572088,0.001293,-0.000481,-0.000336,-0.028019,-0.094012,9.821212
1770803070.762466,0.001293,0.000585,0.000995,-0.01964,-0.086829,9.798467
1770803070.7682269,-0.000838,0.001117,0.000463,-0.031611,-0.096406,9.808043
1770803070.7710104,0.001293,-0.00128,0.000463,-0.03999,-0.090421,9.806846
1770803070.7784712,-0.002436,0.002449,-7e-05,-0.038793,-0.082041,9.803255
1770803070.780051,0.002624,-0.007671,-0.001135,-0.044781,-0.085633,9.804451
1770803070.7880952,-3.9e-05,5.2e-05,-0.000336,-0.031611,-0.09042,9.811635
1770803070.7982585,0.003689,-0.002611,-0.000869,-0.02802,-0.076056,9.799663
1770803070.8022661,-0.000305,5.2e-05,-0.000336,-0.047173,-0.085632,9.815226
1770803070.8032675,0.000494,-0.001546,-0.000603,-0.065129,-0.089223,9.804452
1770803070.8076475,0.00076,-0.001812,-0.000336,-0.045976,-0.101194,9.809241
1770803070.8120315,-3.9e-05,-0.000481,-7e-05,-0.025625,-0.099997,9.803255
1770803070.8171477,-0.000305,0.00378,0.000196,-0.007669,-0.094012,9.800861
1770803070.821433,0.000227,0.000585,0.000463,-0.036399,-0.109574,9.812832
1770803070.8261378,0.001026,-0.001013,-7e-05,-0.057947,-0.101194,9.824803
1770803070.830981,-0.002436,0.004579,0.000463,-0.055553,-0.08683,9.811634
1770803070.839682,-0.002702,0.001916,0.000196,-0.026822,-0.089224,9.797269
1770803070.8411715,0.000494,-0.001546,-7e-05,-0.016048,-0.083238,9.79727
1770803070.848247,-0.001104,0.002183,-0.000603,-0.035202,-0.082041,9.810438
1770803070.850888,0.003423,-0.008204,-0.000869,-0.045978,-0.088027,9.82121
1770803070.8585973,-0.001637,0.004047,0.000729,-0.060342,-0.103589,9.816423
1770803070.8607655,-0.001104,-0.000747,-0.000603,-0.030414,-0.089223,9.811635
1770803070.866929,0.001559,-0.000481,-0.000603,-0.01126,-0.090421,9.798466
1770803070.8721352,0.000494,0.00165,-0.000336,-0.038793,-0.092815,9.793678
1770803070.8778315,0.001292,-0.005008,-7e-05,-0.067525,-0.101195,9.816423
1770803070.881411,0.001825,-0.002079,0.000196,-0.06513,-0.086829,9.816423
1770803070.8894243,-3.9e-05,-0.000747,-7e-05,-0.042385,-0.088026,9.803255
1770803070.8923616,-0.000572,0.002449,0.000196,-0.01126,-0.101195,9.808043
1770803070.9003153,-0.001371,0.002981,-0.000336,-0.030414,-0.096406,9.818817
1770803070.9011722,-0.002702,0.002715,0.000463,-0.035202,-0.091618,9.815226
1770803070.9084938,0.004488,-0.00847,0.000196,-0.047175,-0.099999,9.798465
1770803070.9132655,-0.000305,-0.001546,-0.000336,-0.038793,-0.086829,9.803255
1770803070.9166226,-0.000572,0.001916,0.000463,-0.024428,-0.084435,9.80924
1770803070.9219449,-0.000572,0.003248,-0.000603,-0.032808,-0.080844,9.805649
1770803070.9274127,0.001559,-0.000214,0.000729,-0.055553,-0.095209,9.800861
1770803070.9320507,0.000494,0.002183,0.000196,-0.047173,-0.095209,9.810437
1770803070.9375596,0.001825,-0.000481,0.000196,-0.038793,-0.090421,9.804452
1770803070.943225,0.001292,-0.002877,-7e-05,-0.02802,-0.094012,9.804452
1770803070.9477391,-0.000572,5.2e-05,-0.001135,-0.041188,-0.092815,9.828394
1770803070.9532678,0.001292,-0.002611,-7e-05,-0.035202,-0.099997,9.821211
1770803070.9568393,-0.000572,-0.001812,-0.000336,-0.038793,-0.0988,9.81762
1770803070.9618392,0.00076,0.003248,0.000463,-0.030414,-0.088026,9.798466
1770803070.9692488,-3.9e-05,0.001384,0.000995,-0.029217,-0.089223,9.799664
1770803070.9722512,-0.001371,-0.000214,-0.000869,-0.057947,-0.095209,9.816423
1770803070.978328,0.001292,0.002183,-0.000603,-0.05675,-0.101194,9.814029
1770803070.982622,-3.9e-05,0.000318,-7e-05,-0.04837,-0.092815,9.804452
1770803070.9884953,-3.9e-05,-0.000214,-7e-05,-0.037596,-0.089223,9.804452
1770803070.993799,-0.000572,0.002449,-0.000336,-0.031611,-0.113166,9.810437
1770803071.0035434,-0.001104,0.00165,0.000196,-0.054356,-0.104786,9.810437
1770803071.0037086,-0.000305,-0.002345,-0.000336,-0.066327,-0.099997,9.803255
1770803071.0082238,-0.000572,-0.000747,0.000729,-0.035202,-0.10718,9.810437
1770803071.0128005,-0.001637,0.001384,0.000729,-0.018443,-0.080844,9.793678
1770803071.0179193,0.000227,0.001384,-7e-05,-0.006472,-0.082041,9.799664
1770803071.0243282,-3.9e-05,-0.000481,-0.000336,-0.03999,-0.074858,9.793678
1770803071.029497,-0.001104,0.002715,0.000196,-0.077101,-0.086829,9.808043
1770803071.0345654,-0.001371,-0.00341,-0.000603,-0.029217,-0.082041,9.829591
1770803071.03919,0.001026,0.001384,0.000729,0.003105,-0.071267,9.821211
1770803071.043823,0.005554,-0.003943,-0.001135,-0.001684,-0.084436,9.818816
1770803071.049038,-0.001371,0.005645,0.000196,-0.059145,-0.089224,9.824802
1770803071.0545766,0.001825,-0.005274,-0.001135,-0.089073,-0.109574,9.831985
1770803071.0597193,-0.000572,0.001384,0.000463,-0.055553,-0.105983,9.815226
1770803071.0637827,0.00076,0.001384,0.000463,-0.013654,-0.110771,9.799664
1770803071.0691774,-0.001104,0.003514,-7e-05,0.004302,-0.113166,9.797269
1770803071.0741537,0.00076,-0.002611,-7e-05,-0.044779,-0.091618,9.80924
1770803071.079083,0.001026,-0.003144,-0.000336,-0.078298,-0.091618,9.808043
1770803071.0843322,-0.000838,0.000318,0.000995,-0.062735,-0.104786,9.804452
