time,pos_x,pos_y,yaw,speed,yaw_rate,acc_x
1771240778.4930167,22.2799,21.6129,1.7004489345300229,0.0006324555320336758,0.00025,0.0176
1771240778.5527408,22.2799,21.6129,1.7004489345300229,0.0006324555320336758,-0.0001,-0.0069
1771240778.5932317,22.2799,21.6129,1.7004489345300229,0.0006324555320336758,-0.00047,-0.0052
1771240778.646034,22.2799,21.6129,1.7004489345300229,0.0006324555320336758,-0.00036,0.011
1771240778.6928537,22.2799,21.6129,1.7004489345300229,0.0006324555320336758,-7e-05,0.009
1771240778.7480617,22.2801,21.613,1.700431229553186,0.000848528137423857,0.0002,-0.0034
1771240778.7960346,22.2801,21.613,1.700431229553186,0.000848528137423857,-3e-05,-0.0004
1771240778.8516667,22.2801,21.613,1.700431229553186,0.000848528137423857,1e-05,0.0005
1771240778.8928688,22.2801,21.613,1.700431229553186,0.000848528137423857,0.00021,0.0118
1771240778.954645,22.2801,21.613,1.700431229553186,0.000848528137423857,-0.00028,-0.0001
1771240778.9989407,22.2797,21.6131,1.7004160826078616,0.0008246211251235322,-0.00056,0.0004
1771240779.045246,22.2797,21.6131,1.7004160826078616,0.0008246211251235322,6e-05,0.0032
1771240779.0932066,22.2797,21.6131,1.7004160826078616,0.0008246211251235322,-0.00048,-0.0017
1771240779.1425462,22.2797,21.6131,1.7004160826078616,0.0008246211251235322,-0.00013,0.0024
1771240779.193679,22.2797,21.6131,1.7004160826078616,0.0008246211251235322,-0.00017,0.0047
1771240779.2424774,22.2796,21.6134,1.7004222513946228,0.0007280109889280518,-0.0003,0.01
1771240779.2932074,22.2796,21.6134,1.7004222513946228,0.0007280109889280518,-0.00056,0.0073
1771240779.342482,22.2796,21.6134,1.7004222513946228,0.0007280109889280518,-0.00058,-0.0028
1771240779.3927636,22.2796,21.6134,1.7004222513946228,0.0007280109889280518,0.00025,0.0102
1771240779.4473455,22.2796,21.6134,1.7004222513946228,0.0007280109889280518,0.00047,-0.0004
1771240779.4961836,22.2796,21.6134,1.7004222513946228,0.0007280109889280518,-9e-05,0.0054
1771240779.543125,22.2796,21.6136,1.7003932749372117,0.0014866068747318507,-0.0004,0.0076
1771240779.5938594,22.2796,21.6136,1.7003932749372117,0.0014866068747318507,0.00016,-0.0112
1771240779.643247,22.2796,21.6136,1.7003932749372117,0.0014866068747318507,0.00039,-0.001
1771240779.721571,22.2796,21.6136,1.7003932749372117,0.0014866068747318507,-0.0004,0.0129
1771240779.7431705,22.2796,21.6136,1.7003932749372117,0.0014866068747318507,-0.0002,-0.0004
1771240779.7967365,22.2794,21.6135,1.7004143935965288,0.0014422205101855955,-0.00074,-0.0026
1771240779.8429594,22.2794,21.6135,1.7004143935965288,0.0014422205101855955,0.00015,0.0035
1771240779.8936296,22.2794,21.6135,1.7004143935965288,0.0014422205101855955,0.0001,0.0045
1771240779.9448707,22.2794,21.6135,1.7004143935965288,0.0014422205101855955,0.0,0.0013
1771240779.992427,22.2794,21.6135,1.7004143935965288,0.0014422205101855955,-0.00066,-0.0007
1771240780.042616,22.2792,21.6136,1.700389881996915,0.0016278820596099706,-0.00012,-0.0006
1771240780.0930529,22.2792,21.6136,1.700389881996915,0.0016278820596099706,-0.00062,0.004
1771240780.1430244,22.2792,21.6136,1.700389881996915,0.0016278820596099706,-0.00022,0.0033
1771240780.1926284,22.2792,21.6136,1.700389881996915,0.0016278820596099706,-0.00015,0.0054
1771240780.2426977,22.2792,21.6136,1.700389881996915,0.0016278820596099706,-0.00052,-0.0003
1771240780.292285,22.2792,21.6136,1.700389881996915,0.0016278820596099706,-0.0005,0.0034
1771240780.3421574,22.2791,21.6137,1.7003774615174128,0.0014999999999999998,0.0003,0.0158
1771240780.3971677,22.2791,21.6137,1.7003774615174128,0.0014999999999999998,3e-05,0.0039
1771240780.442532,22.2791,21.6137,1.7003774615174128,0.0014999999999999998,-0.00031,0.0119
1771240780.5004003,22.2791,21.6137,1.7003774615174128,0.0014999999999999998,0.00017,0.01
1771240780.5480475,22.2791,21.6137,1.7003774615174128,0.0014999999999999998,0.00025,-0.0023
1771240780.6029425,22.2796,21.6136,1.7003774511768464,0.00206155281280883,0.0002,-0.0128
1771240780.6427362,22.2796,21.6136,1.7003774511768464,0.00206155281280883,-0.00053,-0.0019
1771240780.700207,22.2796,21.6136,1.7003774511768464,0.00206155281280883,-0.00058,0.0052
1771240780.743441,22.2796,21.6136,1.7003774511768464,0.00206155281280883,-0.00022,0.0247
1771240780.79779,22.2796,21.6136,1.7003774511768464,0.00206155281280883,-3e-05,0.0046
1771240780.8443737,22.2795,21.6136,1.7003766437915482,0.002280350850198276,0.00058,-0.0094
1771240780.9056711,22.2795,21.6136,1.7003766437915482,0.002280350850198276,0.0008,-0.0084
1771240780.9434588,22.2795,21.6136,1.7003766437915482,0.002280350850198276,-0.00017,0.005
1771240781.000757,22.2795,21.6136,1.7003766437915482,0.002280350850198276,-0.00013,-0.0014
1771240781.047796,22.2795,21.6136,1.7003766437915482,0.002280350850198276,3e-05,0.0484
1771240781.1100829,22.2795,21.6136,1.7003766437915482,0.002280350850198276,-0.00048,-0.0155
1771240781.1424365,22.2797,21.6136,1.7004211081304756,0.00233238075793812,-0.00106,-0.0082
1771240781.1934645,22.2797,21.6136,1.7004211081304756,0.00233238075793812,-0.00069,-0.0004
1771240781.242457,22.2797,21.6136,1.7004211081304756,0.00233238075793812,-0.00013,0.0255
1771240781.294347,22.2797,21.6136,1.7004211081304756,0.00233238075793812,0.00013,-0.0085
1771240781.344554,22.2797,21.6136,1.7004211081304756,0.00233238075793812,-0.00108,-0.0018
1771240781.3941307,22.2796,21.6134,1.7004094795924736,0.00116619037896906,-3e-05,-0.0214
1771240781.442562,22.2796,21.6134,1.7004094795924736,0.00116619037896906,0.00106,0.0037
1771240781.502699,22.2796,21.6134,1.7004094795924736,0.00116619037896906,0.00049,0.025
1771240781.543157,22.2796,21.6134,1.7004094795924736,0.00116619037896906,1e-05,-0.037
1771240781.592524,22.2796,21.6134,1.7004094795924736,0.00116619037896906,0.00056,0.0039
1771240781.6432211,22.2796,21.6134,1.7004094795924736,0.00116619037896906,-0.00012,-0.0011
1771240781.6945393,22.28,21.6135,1.7004183633734444,0.001216552506059644,-0.00021,-0.0027
1771240781.7432983,22.28,21.6135,1.7004183633734444,0.001216552506059644,0.0001,0.0611
1771240781.8002136,22.28,21.6135,1.7004183633734444,0.001216552506059644,-0.00011,-0.0081
1771240781.8470848,22.28,21.6135,1.7004183633734444,0.001216552506059644,0.00033,-0.0144
1771240781.8961673,22.28,21.6135,1.7004183633734444,0.001216552506059644,-0.00082,-0.0035
1771240781.9429452,22.28,21.6135,1.7004183633734444,0.001216552506059644,0.00095,0.0093
1771240781.9922757,22.28,21.6136,1.7003944002771891,0.00194164878389476,-0.0004,0.0223
1771240782.04461,22.28,21.6136,1.7003944002771891,0.00194164878389476,0.0003,-0.0276
1771240782.0920534,22.28,21.6136,1.7003944002771891,0.00194164878389476,-7e-05,-0.0013
1771240782.145872,22.28,21.6136,1.7003944002771891,0.00194164878389476,-0.00017,0.0207
1771240782.1978357,22.2805,21.6137,1.7004851958401044,0.0016031219541881396,-0.00033,0.0151
1771240782.244634,22.2805,21.6137,1.7004851958401044,0.0016031219541881396,0.00051,-0.0054
1771240782.2945962,22.2805,21.6137,1.7004851958401044,0.0016031219541881396,-0.00049,-0.0029
1771240782.3431482,22.2805,21.6137,1.7004851958401044,0.0016031219541881396,-0.00049,0.0065
1771240782.3928928,22.2805,21.6137,1.7004851958401044,0.0016031219541881396,0.00058,0.0048
1771240782.4435377,22.2805,21.6137,1.7004851958401044,0.0016031219541881396,-0.00032,0.0013
1771240782.4975848,22.2804,21.6132,1.700497118478477,0.0013038404810405298,-1e-05,-0.0033
1771240782.5441668,22.2804,21.6132,1.700497118478477,0.0013038404810405298,0.00015,0.0114
1771240782.5933237,22.2804,21.6132,1.700497118478477,0.0013038404810405298,8e-05,0.0004
1771240782.645268,22.2804,21.6132,1.700497118478477,0.0013038404810405298,-0.00014,-0.0015
1771240782.6936588,22.2804,21.6132,1.700497118478477,0.0013038404810405298,0.00028,0.0018
1771240782.748794,22.2806,21.6129,1.7005095600783722,0.0012727922061357855,0.0005,0.0094
1771240782.7926023,22.2806,21.6129,1.7005095600783722,0.0012727922061357855,-0.00074,0.0031
1771240782.8529031,22.2806,21.6129,1.7005095600783722,0.0012727922061357855,2e-05,-0.0066
1771240782.8943508,22.2806,21.6129,1.7005095600783722,0.0012727922061357855,6e-05,0.003
1771240782.9505715,22.2806,21.6129,1.7005095600783722,0.0012727922061357855,-6e-05,0.0057
1771240782.9928713,22.2806,21.6129,1.7005095600783722,0.0012727922061357855,0.00021,-0.0006
1771240783.0477684,22.2805,21.6128,1.700502643423923,0.0020248456731316584,4e-05,-0.0042
1771240783.0930166,22.2805,21.6128,1.700502643423923,0.0020248456731316584,0.00039,-0.0005
1771240783.1498508,22.2805,21.6128,1.700502643423923,0.0020248456731316584,3e-05,-0.0002
1771240783.1944609,22.2805,21.6128,1.700502643423923,0.0020248456731316584,-0.00027,0.0064
1771240783.262026,22.2805,21.6128,1.700502643423923,0.0020248456731316584,9e-05,-0.0039
1771240783.2928238,22.2805,21.6126,1.7005087791011615,0.0013038404810405298,9e-05,0.0065
1771240783.3433042,22.2805,21.6126,1.7005087791011615,0.0013038404810405298,-0.00059,0.0095
1771240783.3959053,22.2805,21.6126,1.7005087791011615,0.0013038404810405298,0.00034,-0.0046
1771240783.444602,22.2805,21.6126,1.7005087791011615,0.0013038404810405298,-0.00022,0.0098
1771240783.4949484,22.2805,21.6126,1.7005087791011615,0.0013038404810405298,0.00048,-0.0076
1771240783.551535,22.2805,21.6127,1.7005481423744833,0.0018681541692269405,-0.00054,0.0085
1771240783.5943613,22.2805,21.6127,1.7005481423744833,0.0018681541692269405,-0.00012,-0.0093
1771240783.644209,22.2805,21.6127,1.7005481423744833,0.0018681541692269405,0.00012,-0.0008
1771240783.6965342,22.2805,21.6127,1.7005481423744833,0.0018681541692269405,0.00022,0.0215
1771240783.746917,22.2805,21.6127,1.7005481423744833,0.0018681541692269405,-0.00039,0.0021
1771240783.7923646,22.2805,21.6127,1.7005481423744833,0.0018681541692269405,-0.00015,0.0103
1771240783.8484151,22.2804,21.6129,1.700505642570811,0.0013892443989449803,-0.00033,0.0054
1771240783.89561,22.2804,21.6129,1.700505642570811,0.0013892443989449803,0.00028,-0.0147
1771240783.946629,22.2804,21.6129,1.700505642570811,0.0013892443989449803,-9e-05,-0.0069
1771240783.9937267,22.2804,21.6129,1.700505642570811,0.0013892443989449803,0.00041,-0.0262
1771240784.0431335,22.2804,21.6129,1.700505642570811,0.0013892443989449803,-0.00016,0.0206
1771240784.094,22.2803,21.6131,1.7004758772129325,0.0009433981132056604,-5e-05,0.0292
1771240784.1433458,22.2803,21.6131,1.7004758772129325,0.0009433981132056604,0.0003,-0.0958
1771240784.1926048,22.2803,21.6131,1.7004758772129325,0.0009433981132056604,0.00027,-0.0281
1771240784.2437365,22.2803,21.6131,1.7004758772129325,0.0009433981132056604,0.00036,-0.0101
1771240784.2938924,22.2803,21.6131,1.7004758772129325,0.0009433981132056604,5e-05,0.0255
1771240784.3446846,22.2803,21.6131,1.7004758772129325,0.0009433981132056604,-0.0001,0.0254
1771240784.3921945,22.2806,21.6128,1.7004939313171064,0.002080865204668481,-0.00027,-0.024
1771240784.4435325,22.2806,21.6128,1.7004939313171064,0.002080865204668481,-0.00103,0.0068
1771240784.4936595,22.2806,21.6128,1.7004939313171064,0.002080865204668481,-0.0003,0.0161
1771240784.5452104,22.2806,21.6128,1.7004939313171064,0.002080865204668481,0.00033,0.0128
1771240784.5971084,22.2806,21.6128,1.7004939313171064,0.002080865204668481,-0.00032,-0.002
1771240784.6453242,22.28,21.6128,1.7004578980176153,0.0016155494421403512,0.00015,0.0202
1771240784.699455,22.28,21.6128,1.7004578980176153,0.0016155494421403512,-0.00029,0.0145
1771240784.7430298,22.28,21.6128,1.7004578980176153,0.0016155494421403512,2e-05,-0.031
1771240784.7962294,22.28,21.6128,1.7004578980176153,0.0016155494421403512,0.00017,-0.0089
1771240784.843552,22.28,21.6128,1.7004578980176153,0.0016155494421403512,0.00029,0.0311
1771240784.8982835,22.28,21.6128,1.7004578980176153,0.0016155494421403512,7e-05,0.0099
1771240784.943156,22.2801,21.6129,1.7004425412381652,0.0017000000000000001,0.00018,0.0204
1771240784.996095,22.2801,21.6129,1.7004425412381652,0.0017000000000000001,0.00017,-0.0513
1771240785.0427651,22.2801,21.6129,1.7004425412381652,0.0017000000000000001,0.00028,0.0576
1771240785.0965407,22.2801,21.6129,1.7004425412381652,0.0017000000000000001,-0.00062,0.0275
1771240785.142778,22.2801,21.6129,1.7004425412381652,0.0017000000000000001,0.00068,0.0613
1771240785.200837,22.2798,21.6133,1.7004605698931545,0.0012727922061357855,0.0002,0.0139
1771240785.2486012,22.2798,21.6133,1.7004605698931545,0.0012727922061357855,-0.00071,0.0557
1771240785.3012428,22.2798,21.6133,1.7004605698931545,0.0012727922061357855,-0.00026,0.0621
1771240785.3443713,22.2798,21.6133,1.7004605698931545,0.0012727922061357855,-0.0009,0.06
1771240785.4036093,22.2798,21.6133,1.7004605698931545,0.0012727922061357855,-0.00071,0.0482
1771240785.4471145,22.2797,21.6142,1.7004369226444715,0.008443340571124678,-0.00107,0.02
1771240785.492468,22.2797,21.6142,1.7004369226444715,0.008443340571124678,-0.0003,0.035
1771240785.5478008,22.2797,21.6142,1.7004369226444715,0.008443340571124678,-0.00109,-0.0143
1771240785.5929775,22.2797,21.6142,1.7004369226444715,0.008443340571124678,-0.00129,0.0264
1771240785.6424117,22.2797,21.6142,1.7004369226444715,0.008443340571124678,-0.00103,-0.0117
1771240785.69533,22.2797,21.6142,1.7004369226444715,0.008443340571124678,-0.0005,0.024
1771240785.7424555,22.2796,21.6151,1.7002249267503584,0.010948972554536796,-0.00129,-0.0137
1771240785.792578,22.2796,21.6151,1.7002249267503584,0.010948972554536796,-0.00089,0.0263
1771240785.8452263,22.2796,21.6151,1.7002249267503584,0.010948972554536796,-0.00084,-0.0537
1771240785.8923578,22.2796,21.6151,1.7002249267503584,0.010948972554536796,-0.0008,-0.0134
1771240785.9451213,22.2796,21.6151,1.7002249267503584,0.010948972554536796,-0.00096,-0.495
1771240785.996016,22.2795,21.6156,1.6999766310337499,0.00327566787083184,0.00018,0.2241
1771240786.042683,22.2795,21.6156,1.6999766310337499,0.00327566787083184,0.00123,0.1745
1771240786.0967228,22.2795,21.6156,1.6999766310337499,0.00327566787083184,-5e-05,-0.1991
1771240786.147246,22.2795,21.6156,1.6999766310337499,0.00327566787083184,0.00039,-0.2747
1771240786.19435,22.2795,21.6156,1.6999766310337499,0.00327566787083184,0.00017,-0.0054
1771240786.2468042,22.2802,21.6083,1.699842602830094,0.04246787020795839,0.00082,-0.0745
1771240786.2929626,22.2803,21.6061,1.6998673177410337,0.044349746335238485,-0.00074,0.0418
1771240786.3491075,22.2805,21.6038,1.6998954109313025,0.046678153348220626,0.00077,-0.0122
1771240786.3936925,22.2806,21.6014,1.6999256876930737,0.04878042640240038,0.00054,-0.0553
1771240786.4482973,22.2808,21.599,1.6999622232247795,0.04926347531386717,0.00077,-0.0041
1771240786.494105,22.281,21.5965,1.7000108375802128,0.05004837659704858,0.00045,-0.0063
1771240786.544561,22.2797,21.6157,1.6998540805276263,0.0183,0.00102,-0.0179
1771240786.6031823,22.2797,21.6157,1.6998540805276263,0.0183,0.0005,0.0008
1771240786.6460297,22.2797,21.6157,1.6998540805276263,0.0183,0.00108,0.065
1771240786.6947138,22.2797,21.6157,1.6998540805276263,0.0183,0.00056,0.053
1771240786.744795,22.2797,21.6157,1.6998540805276263,0.0183,0.001,0.1132
1771240786.7931705,22.2785,21.6183,1.700108462730378,0.006407027391856539,0.00105,0.0105
1771240786.8440857,22.2785,21.6183,1.700108462730378,0.006407027391856539,0.00064,-0.0253
1771240786.8934636,22.2785,21.6183,1.700108462730378,0.006407027391856539,0.00014,0.0856
1771240786.9505646,22.2785,21.6183,1.700108462730378,0.006407027391856539,0.00126,0.0345
1771240787.000038,22.2785,21.6183,1.700108462730378,0.006407027391856539,0.00093,0.0423
1771240787.0440967,22.2778,21.6195,1.7003747662010933,0.004052159917870962,0.0003,0.0736
1771240787.0930853,22.2778,21.6195,1.7003747662010933,0.004052159917870962,0.00018,0.0852
1771240787.1504655,22.2778,21.6195,1.7003747662010933,0.004052159917870962,0.00018,0.0716
1771240787.2012184,22.2778,21.6195,1.7003747662010933,0.004052159917870962,0.0006,0.1173
1771240787.2592735,22.2778,21.6195,1.7003747662010933,0.004052159917870962,0.00083,0.0062
1771240787.2930107,22.2778,21.6195,1.7003747662010933,0.004052159917870962,-0.00142,-0.047
1771240787.348358,22.2782,21.6204,1.700575505891675,0.010210778618695052,-0.00093,-0.0894
1771240787.3968651,22.2782,21.6204,1.700575505891675,0.010210778618695052,-0.00048,0.0065
1771240787.4707215,22.2782,21.6204,1.700575505891675,0.010210778618695052,-0.00062,-0.0386
1771240787.50542,22.2782,21.6204,1.700575505891675,0.010210778618695052,-0.0001,-0.0297
1771240787.556054,22.2782,21.6204,1.700575505891675,0.010210778618695052,0.00046,0.0339
1771240787.5970373,22.2785,21.6185,1.7005756253509705,0.00382099463490856,0.00011,0.0223
1771240787.6463244,22.2785,21.6185,1.7005756253509705,0.00382099463490856,-0.00046,0.0066
1771240787.6948998,22.2785,21.6185,1.7005756253509705,0.00382099463490856,-0.00018,0.0029
1771240787.758801,22.2785,21.6185,1.7005756253509705,0.00382099463490856,-0.00023,0.0149
1771240787.7978113,22.2785,21.6185,1.7005756253509705,0.00382099463490856,0.00016,-0.0006
1771240787.8632984,22.279,21.6172,1.7005965190337402,0.0014866068747318507,0.00021,0.0065
1771240787.911809,22.279,21.6172,1.7005965190337402,0.0014866068747318507,0.00053,0.0076
1771240787.9453192,22.279,21.6172,1.7005965190337402,0.0014866068747318507,0.00012,-0.0169
1771240787.9992056,22.279,21.6172,1.7005965190337402,0.0014866068747318507,-0.0007,0.0176
1771240788.0495164,22.279,21.6172,1.7005965190337402,0.0014866068747318507,0.00013,-0.0083
1771240788.095687,22.279,21.6172,1.7005965190337402,0.0014866068747318507,0.00081,0.0285
1771240788.146567,22.279,21.6172,1.7005965190337402,0.0014866068747318507,-0.00042,-0.0262
1771240788.252047,22.2795,21.6167,1.700632889777145,0.00116619037896906,-0.00029,-0.0461
1771240788.3017287,22.2795,21.6167,1.700632889777145,0.00116619037896906,0.00068,0.0631
1771240788.3428109,22.2795,21.6167,1.700632889777145,0.00116619037896906,0.00019,-0.048
1771240788.4038663,22.2802,21.615,1.7006183558607815,0.0026419689627245812,0.00039,0.0156
1771240788.4487796,22.2802,21.615,1.7006183558607815,0.0026419689627245812,0.00062,0.0226
1771240788.5053644,22.2802,21.615,1.7006183558607815,0.0026419689627245812,-0.00073,-0.0279
1771240788.551438,22.2802,21.615,1.7006183558607815,0.0026419689627245812,0.00028,0.0327
1771240788.5978284,22.2802,21.615,1.7006183558607815,0.0026419689627245812,-6e-05,-0.0089
1771240788.6447556,22.2805,21.6139,1.700618130561826,0.001711724276862369,0.00026,-0.008
1771240788.695912,22.2805,21.6139,1.700618130561826,0.001711724276862369,0.0,-0.03
1771240788.7435193,22.2805,21.6139,1.700618130561826,0.001711724276862369,0.00027,0.0609
1771240788.7956831,22.2805,21.6139,1.700618130561826,0.001711724276862369,-0.00023,0.0949
1771240788.8477578,22.2805,21.6139,1.700618130561826,0.001711724276862369,-0.00045,-0.0696
1771240788.893876,22.2805,21.6139,1.700618130561826,0.001711724276862369,-0.00048,-0.1388
1771240788.9430318,22.281,21.6125,1.700591116189923,0.003920459156782532,0.00113,0.0161
1771240788.9995918,22.281,21.6125,1.700591116189923,0.003920459156782532,2e-05,0.0805
1771240789.0429463,22.281,21.6125,1.700591116189923,0.003920459156782532,-0.00099,0.0062
1771240789.1018574,22.281,21.6125,1.700591116189923,0.003920459156782532,-0.00025,-0.0166
1771240789.142425,22.281,21.6125,1.700591116189923,0.003920459156782532,-0.00018,-0.0437
1771240789.195678,22.2806,21.6118,1.7005860743885521,0.0009486832980505138,0.00035,0.0357
1771240789.2423537,22.2806,21.6118,1.7005860743885521,0.0009486832980505138,0.00035,0.0086
1771240789.293998,22.2806,21.6118,1.7005860743885521,0.0009486832980505138,0.0006,0.0142
1771240789.342814,22.2806,21.6118,1.7005860743885521,0.0009486832980505138,-0.00043,-0.0194
1771240789.3969688,22.2806,21.6118,1.7005860743885521,0.0009486832980505138,0.00025,-0.0075
1771240789.442723,22.2806,21.6118,1.7005860743885521,0.0009486832980505138,0.00024,0.0194
1771240789.4996655,22.2811,21.611,1.7005649831356064,0.0020248456731316584,-0.00036,0.0086
1771240789.542868,22.2811,21.611,1.7005649831356064,0.0020248456731316584,-0.00025,0.0143
1771240789.6043968,22.2811,21.611,1.7005649831356064,0.0020248456731316584,3e-05,0.0166
1771240789.643903,22.2811,21.611,1.7005649831356064,0.0020248456731316584,0.00013,-0.009
1771240789.7062638,22.2811,21.611,1.7005649831356064,0.0020248456731316584,0.00016,-0.0213
1771240789.7426016,22.2811,21.611,1.7005649831356064,0.0020248456731316584,0.00059,-0.011
1771240789.7923388,22.2803,21.611,1.7005188218796776,0.0013341664064126333,0.00031,-0.0193
1771240789.8421588,22.2803,21.611,1.7005188218796776,0.0013341664064126333,-0.00049,0.0097
1771240789.8948264,22.2803,21.611,1.7005188218796776,0.0013341664064126333,-0.00017,0.0225
1771240789.9427378,22.2803,21.611,1.7005188218796776,0.0013341664064126333,0.00026,-0.0063
1771240789.9925983,22.2803,21.611,1.7005188218796776,0.0013341664064126333,0.00027,-0.0053
1771240790.0445545,22.2799,21.6111,1.7005028106246234,0.0023021728866442675,0.00017,-0.009
1771240790.0936325,22.2799,21.6111,1.7005028106246234,0.0023021728866442675,0.00034,0.0008
1771240790.1468682,22.2799,21.6111,1.7005028106246234,0.0023021728866442675,0.00018,0.0043
1771240790.193034,22.2799,21.6111,1.7005028106246234,0.0023021728866442675,6e-05,0.0087
1771240790.241909,22.2799,21.6111,1.7005028106246234,0.0023021728866442675,-7e-05,-0.0152
1771240790.2942848,22.2799,21.6111,1.7005028106246234,0.0023021728866442675,0.00024,0.0313
1771240790.3456817,22.2798,21.6115,1.7004515755215799,0.0012206555615733702,0.00046,-0.0251
1771240790.392814,22.2798,21.6115,1.7004515755215799,0.0012206555615733702,0.00037,-0.0396
1771240790.4470806,22.2798,21.6115,1.7004515755215799,0.0012206555615733702,0.0003,-0.0071
1771240790.494588,22.2798,21.6115,1.7004515755215799,0.0012206555615733702,-8e-05,0.0719
1771240790.5432122,22.2798,21.6115,1.7004515755215799,0.0012206555615733702,-6e-05,0.2101
1771240790.6011589,22.2793,21.6117,1.7004726681790727,0.000608276253029822,-0.00063,0.1672
1771240790.6537292,22.2793,21.6117,1.7004726681790727,0.000608276253029822,-0.0008,0.354
1771240790.699114,22.2793,21.6117,1.7004726681790727,0.000608276253029822,-0.00192,0.283
1771240790.7471285,22.2793,21.6117,1.7004726681790727,0.000608276253029822,-0.00246,0.2814
1771240790.8001735,22.2793,21.6117,1.7004726681790727,0.000608276253029822,-0.00298,0.3231
1771240790.8435366,22.2787,21.6249,1.6999237439284887,0.08793776208205438,-0.00364,0.2961
1771240790.892758,22.2785,21.6297,1.6997772166202474,0.10181478281664211,-0.00266,0.2667
1771240790.9430904,22.2782,21.6349,1.6995833807631642,0.1104431980703203,-0.00424,0.1763
1771240790.99266,22.2779,21.6407,1.699371059401648,0.12050726119201283,-0.00431,0.1461
1771240791.044314,22.2776,21.6469,1.699128885620119,0.12711797669881314,-0.00493,0.1718
1771240791.0921087,22.2773,21.6534,1.6988713615630975,0.1330072178492581,-0.00541,0.044
1771240791.1426322,22.2772,21.6444,1.6985246744847629,0.11364902111325025,-0.00537,0.2145
1771240791.199702,22.2769,21.6502,1.6982695793639704,0.11903318864921665,-0.00527,0.0881
1771240791.2531407,22.2765,21.6563,1.697985360344551,0.12459028854609816,-0.00524,0.162
1771240791.2971606,22.2762,21.6627,1.6976801045295573,0.13011164436744316,-0.00662,0.1207
1771240791.353598,22.2758,21.6693,1.6973586572431043,0.1358539289089572,-0.00659,0.097
1771240791.396371,22.2766,21.6555,1.697026787339955,0.1044151808886045,-0.00542,0.0928
1771240791.4589658,22.2763,21.6608,1.6967093930739274,0.1101907890887437,-0.00714,0.1674
1771240791.495819,22.276,21.6665,1.6963821374780854,0.11774446908453917,-0.0066,0.1385
1771240791.5564728,22.2758,21.6725,1.6959924750558242,0.1240566402898289,-0.00802,0.1679
1771240791.5930886,22.2755,21.6789,1.6955998501336333,0.1308064983095259,-0.00917,0.1995
1771240791.649552,22.2773,21.6638,1.6952037705154501,0.0998535928246951,-0.008,0.1459
1771240791.693904,22.2772,21.669,1.6947962153354421,0.10699691584340176,-0.00742,0.1613
1771240791.7513285,22.2771,21.6745,1.6943643951902805,0.11185799032702134,-0.00859,0.0785
1771240791.7926545,22.2771,21.6802,1.6939172407639844,0.11883539035152785,-0.00918,0.1207
1771240791.854447,22.277,21.6864,1.6934582187696117,0.12537292371162126,-0.0096,0.1335
1771240791.89894,22.277,21.6928,1.6929874639918332,0.131429106365371,-0.00999,0.134
1771240791.943296,22.278,21.6902,1.6924043514008473,0.13276720227526073,-0.01178,0.2047
1771240791.9979794,22.278,21.6971,1.6918961895108833,0.14158435648050952,-0.01087,0.158
1771240792.0420468,22.2779,21.7043,1.6913777040855895,0.1473351621304297,-0.01031,0.1432
1771240792.0929687,22.2778,21.7119,1.6908314263114121,0.1560225624709452,-0.01117,0.2166
1771240792.1427808,22.2778,21.7198,1.6902717542681007,0.15875219683519343,-0.01158,0.0644
1771240792.195335,22.2812,21.7699,1.6900533123489998,0.19121697100414492,-0.01122,0.2154
1771240792.2429357,22.2814,21.7797,1.6894835009820683,0.2013597030192486,-0.01136,0.223
1771240792.292199,22.2815,21.7899,1.6888826422705407,0.20589990286544577,-0.01323,0.1523
1771240792.3425252,22.2814,21.8004,1.6882381943781422,0.2117668529302922,-0.01338,0.1057
1771240792.3923397,22.2814,21.8111,1.6875077139302546,0.21805561217267488,-0.01584,0.2262
1771240792.4431293,22.2766,21.8975,1.6868472868391868,0.2932643858363985,-0.01541,0.1539
1771240792.4924943,22.2764,21.9125,1.6860317961127778,0.30561734243985567,-0.01508,0.2993
1771240792.544589,22.2762,21.9279,1.6853421937620126,0.31028412785703363,-0.01116,-0.0227
1771240792.6309545,22.2758,21.9436,1.6846665031743204,0.319701266810127,-0.01419,0.2324
1771240792.6429937,22.2756,21.9597,1.68381646260805,0.325108504964112,-0.01896,0.1868
1771240792.6930504,22.2754,21.9761,1.6828682637762917,0.3322034316499455,-0.01898,0.1059
1771240792.7425077,22.2784,22.0298,1.6821693476255248,0.3693614083793812,-0.01733,0.2576
1771240792.792745,22.2784,22.0485,1.6813901950227834,0.37886019849015545,-0.01556,0.116
1771240792.8425388,22.2784,22.0676,1.680544750496126,0.383871085131454,-0.01735,0.1167
1771240792.922008,22.2785,22.087,1.6796033582986716,0.3933404886354823,-0.01935,0.1791
1771240792.9476104,22.2786,22.1069,1.6786087883503995,0.4022832832718755,-0.01918,0.1785
1771240792.9965096,22.2808,22.1397,1.6777616700147189,0.4194533227905103,-0.01856,0.1998
1771240793.042387,22.2808,22.161,1.6768180047104022,0.42894591733690624,-0.01912,0.1321
1771240793.094196,22.2809,22.1826,1.6758106921955047,0.4365409717311767,-0.01998,0.211
1771240793.1430876,22.281,22.2045,1.6748186436178936,0.44278681100502526,-0.01978,0.1634
1771240793.192695,22.2812,22.227,1.6737933196605135,0.4539956497588936,-0.02021,0.1437
1771240793.2439735,22.2753,22.2474,1.672820807060471,0.4599492254586369,-0.02218,0.3043
1771240793.2970035,22.2752,22.2705,1.671707762867438,0.4664137326451699,-0.02339,0.1805
1771240793.343145,22.2752,22.2941,1.6706244854667267,0.4780474139664391,-0.02059,0.2885
1771240793.3999617,22.2752,22.3182,1.669568950652878,0.48622419725883653,-0.02098,0.2384
1771240793.442556,22.275,22.3428,1.6684538934091708,0.4950191915471561,-0.02245,0.0567
1771240793.502335,22.2749,22.3677,1.6672411373354843,0.5031016795837597,-0.02477,0.225
1771240793.5483944,22.2708,22.3851,1.6660560941453593,0.5069460129047274,-0.02626,0.1217
1771240793.596185,22.2707,22.4106,1.6648187648601676,0.5127147550051588,-0.0237,0.1639
1771240793.6424682,22.2705,22.4363,1.6636515220339572,0.5163865412653587,-0.02348,0.0838
1771240793.6977005,22.2704,22.4623,1.6624130615803987,0.5249084682113636,-0.02561,0.1308
1771240793.743363,22.2705,22.4887,1.6610597285809754,0.5311190638642149,-0.02769,0.1927
1771240793.8019054,22.2766,22.5196,1.65974703922412,0.5349580357373838,-0.02676,0.0533
1771240793.8435152,22.2768,22.5465,1.6584487295401613,0.5387346007079924,-0.02464,-0.0952
1771240793.9059825,22.277,22.5735,1.6571823638476146,0.5402793073957209,-0.02655,0.0669
1771240793.9433784,22.2773,22.6006,1.655886258947671,0.5462049798381556,-0.02548,0.1763
1771240794.003446,22.2775,22.6281,1.6545349140149508,0.5530571851083755,-0.02731,0.0309
1771240794.0489278,22.2776,22.6556,1.6531392457666434,0.5467584933039449,-0.02852,-0.0454
1771240794.0922928,22.2778,22.6832,1.6517790599696438,0.5588823489787452,-0.02497,0.1565
1771240794.1435895,22.2816,22.7102,1.6506265992422693,0.5656498210023583,-0.02518,0.296
1771240794.1933398,22.2822,22.7386,1.6493233865633379,0.5716838724330082,-0.02856,0.0641
1771240794.2433095,22.283,22.7672,1.6478384924293397,0.5720071677872578,-0.03021,-0.0599
1771240794.29813,22.2836,22.7958,1.6463680667248735,0.5729077150815828,-0.0287,0.1078
1771240794.3422835,22.2924,22.8195,1.6451816562087989,0.5757912121594077,-0.02651,0.0151
1771240794.3961513,22.2934,22.8484,1.643835208895423,0.5803057469989419,-0.0251,-0.1344
1771240794.4430585,22.2944,22.8774,1.642470935574266,0.5804335620895814,-0.02755,0.0259
1771240794.4921277,22.2959,22.9066,1.6410581592224456,0.5882779275138581,-0.02884,0.1673
1771240794.5429518,22.2976,22.9361,1.6395737581035459,0.5942759291776842,-0.02787,0.1062
1771240794.5932758,22.3076,22.9563,1.6383215356892322,0.5908214789595924,-0.0288,0.0698
1771240794.6433864,22.3095,22.986,1.6368215328479498,0.597098668563245,-0.03157,0.0858
1771240794.6926713,22.3114,23.0157,1.6352624114956802,0.5968457170827315,-0.03036,0.1379
1771240794.7458663,22.3133,23.0458,1.6337093917313927,0.6106234518915893,-0.0298,0.2253
1771240794.7922652,22.315,23.0763,1.6321901418812683,0.6078404560408923,-0.02958,-0.0539
1771240794.84626,22.3168,23.1066,1.6308056301668306,0.6105131038724722,-0.02951,0.2957
1771240794.8927162,22.3203,23.1347,1.6293848817417802,0.618936507244483,-0.0285,0.1113
1771240794.946738,22.3224,23.1657,1.6278192602008539,0.6254834929876247,-0.03142,0.135
1771240794.9955533,22.3247,23.1968,1.6263403291650964,0.6246773407127875,-0.03161,0.2747
1771240795.0427723,22.3269,23.2283,1.6249228439159402,0.6365835216214758,-0.02738,0.1887
1771240795.0925455,22.3293,23.2603,1.6234387658961995,0.6412727110987961,-0.02894,-0.0728
1771240795.1422443,22.3239,23.3028,1.6218808645997496,0.6472715195341133,-0.03183,-0.1442
1771240795.1921842,22.326,23.3352,1.620227287966423,0.654760857107387,-0.03394,0.2031
1771240795.2445228,22.3283,23.368,1.6185532091335761,0.6609593103966386,-0.03188,0.1304
1771240795.294498,22.3304,23.4011,1.6170204143125466,0.6664503732462006,-0.03076,0.2387
1771240795.3496356,22.3324,23.4345,1.6154886526400591,0.6724637164933138,-0.03288,0.176
1771240795.394086,22.3377,23.4586,1.6138128028158767,0.6717347690867281,-0.03588,0.1084
1771240795.4484277,22.34,23.4921,1.6120846164627907,0.6737983823073487,-0.0341,0.0492
1771240795.492477,22.3421,23.526,1.6104559839151293,0.6800285288133138,-0.03111,0.0212
1771240795.5525503,22.3443,23.5602,1.6088772229082602,0.690110498398626,-0.03083,0.1235
1771240795.5937955,22.3466,23.5946,1.6071991524671696,0.6926664781841259,-0.03455,0.0207
1771240795.650572,22.349,23.6293,1.6054799745328934,0.6988671476038919,-0.03644,0.1968
1771240795.6940694,22.3459,23.665,1.6037155088627926,0.701502223802605,-0.03397,-0.0431
1771240795.7544515,22.348,23.7001,1.6019677279049969,0.7092126408912915,-0.03525,0.2529
1771240795.796221,22.3502,23.7355,1.600287404349993,0.7066224805368139,-0.035,-0.0979
1771240795.8481116,22.3523,23.7709,1.5985968103841208,0.710063046496577,-0.03123,-0.1661
1771240795.8932323,22.3548,23.8066,1.596796401762255,0.7228152806907171,-0.03826,0.2882
1771240795.950691,22.3489,23.8542,1.5950285823879053,0.7284687639151043,-0.03357,-0.2914
1771240795.996816,22.3512,23.8908,1.5932738696065543,0.7358690440560739,-0.03054,0.0175
1771240796.052875,22.3533,23.9277,1.5916038913524753,0.7433049508781708,-0.03434,0.1338
1771240796.093235,22.3555,23.9649,1.5899402668014386,0.7491112600942533,-0.03391,0.1134
1771240796.147316,22.3578,24.0022,1.5883643639546863,0.7440034542930564,-0.03187,0.0449
1771240796.192502,22.3601,24.0395,1.5866497529353252,0.7458646123794854,-0.03612,-0.0661
1771240796.2425203,22.3623,24.0752,1.5847579042864584,0.7485975220370423,-0.03647,0.1336
1771240796.2940848,22.3647,24.1128,1.5829557009782917,0.7570157197839422,-0.03413,-0.098
1771240796.34332,22.3671,24.1508,1.5812148435086817,0.7672801639557744,-0.0333,0.0745
1771240796.3930552,22.3697,24.1892,1.5795697205627055,0.7708386666482163,-0.0344,-0.0467
1771240796.4469545,22.3726,24.2277,1.5778804611442034,0.7791418420287798,-0.03431,0.2075
1771240796.4998934,22.3728,24.2649,1.5761810177234952,0.7794866579999942,-0.0334,-0.0066
1771240796.5421677,22.3762,24.3038,1.574502581565377,0.7843461544496793,-0.03386,0.1967
1771240796.595997,22.3795,24.3433,1.5729092976660408,0.7931898952962021,-0.03058,-0.1091
1771240796.6425729,22.3825,24.383,1.5711042729057674,0.8043852373085921,-0.04142,0.5724
1771240796.693307,22.3857,24.4233,1.5692096189274356,0.8089237912189257,-0.04101,0.254
1771240796.7443025,22.4005,24.4283,1.5669773312432855,0.7903599433169675,-0.0386,-0.3209
1771240796.7970188,22.4045,24.4677,1.5650675308997328,0.7972074886753134,-0.03709,0.1966
1771240796.852087,22.4088,24.5078,1.5634033530033498,0.8068393892219194,-0.031,-0.212
1771240796.8932042,22.4137,24.5478,1.561884858342743,0.8135118069210796,-0.02653,0.471
1771240796.9453893,22.4178,24.5884,1.5608625935003766,0.808977787086889,-0.02439,-0.3124
1771240796.9935665,22.4202,24.6254,1.558879384963514,0.8212921100315039,-0.04587,0.1894
1771240797.0421956,22.4239,24.6667,1.5566116416827682,0.8483308611620821,-0.04532,0.7051
1771240797.0928369,22.4269,24.7086,1.554918592285466,0.8385226353533934,-0.03541,0.5915
1771240797.1455147,22.4295,24.7503,1.5535467564733696,0.8272793119618066,-0.02727,-0.2737
1771240797.199886,22.4325,24.792,1.5520920877330744,0.8363104925803574,-0.02947,-0.0981
1771240797.2426517,22.4367,24.8342,1.5503269998896951,0.8536095594591242,-0.03677,-0.0934
1771240797.2966423,22.4367,24.8743,1.5485974416160215,0.8530466868817907,-0.0326,-0.1214
1771240797.3441262,22.4402,24.9168,1.547064841484818,0.8543104178224681,-0.02939,0.0904
1771240797.3933086,22.4438,24.9593,1.5455753494791962,0.8598037101571497,-0.03329,0.472
1771240797.442269,22.4478,25.0022,1.5439083433677248,0.8626959893264835,-0.03499,-0.0628
1771240797.4955502,22.4521,25.0453,1.5421981435243834,0.8631735514947154,-0.02846,-0.3645
1771240797.5463908,22.4513,25.0872,1.5404895148791358,0.8765026525915367,-0.03549,0.3944
1771240797.602494,22.4559,25.1307,1.5390078695767142,0.8800260507507719,-0.03445,0.2011
1771240797.6423626,22.4605,25.1744,1.5372548941038375,0.8790389809331552,-0.033,-0.0391
1771240797.6994586,22.465,25.2181,1.5354612924278814,0.8840038461454792,-0.03427,0.1584
1771240797.7422502,22.469,25.2623,1.5338858801345274,0.890878066853147,-0.03222,0.2007
1771240797.7930548,22.4729,25.3068,1.5322834217570769,0.8954083090970286,-0.02978,-0.0314
1771240797.842843,22.4771,25.3516,1.5306302203415771,0.903123806573606,-0.03157,-0.1029
1771240797.899662,22.4767,25.3998,1.5291526254795569,0.9099647960223517,-0.03163,0.1248
1771240797.942881,22.4805,25.4451,1.5276063755685565,0.913815605032,-0.0329,0.2892
1771240797.9974802,22.4846,25.4908,1.5260280800324955,0.9226808332245772,-0.03005,0.0378
1771240798.0442572,22.489,25.5371,1.5244133025075153,0.9310388015544788,-0.02789,-0.1154
1771240798.10131,22.4931,25.5833,1.522898026390533,0.9299645799706567,-0.0306,0.1004
1771240798.1449904,22.4914,25.6297,1.521433388286318,0.9372315188895431,-0.0307,0.2292
1771240798.2078943,22.4955,25.6766,1.5200641743045245,0.9498326694739448,-0.02794,0.4622
1771240798.2471902,22.4995,25.724,1.5188119043566388,0.9509392830249469,-0.02322,-0.1172
1771240798.3000407,22.5032,25.7715,1.5175377664764576,0.9542772133924188,-0.02512,-0.095
1771240798.3481083,22.5071,25.8192,1.516361062835115,0.9585182992515063,-0.02469,0.0761
1771240798.398048,22.5031,25.8622,1.5152044025406795,0.9629628964814793,-0.02263,-0.0364
1771240798.4438672,22.507,25.9101,1.5140125117715342,0.9603112099731003,-0.0231,-0.1408
1771240798.4950306,22.5113,25.9581,1.512840706605104,0.9702619543195539,-0.02717,0.4297
1771240798.5501888,22.5157,26.0063,1.5119175435492616,0.964904746594191,-0.01817,-0.1169
1771240798.5953746,22.5205,26.0552,1.5108156780962976,0.9906014738531332,-0.01604,-0.1507
1771240798.6434443,22.5193,26.101,1.5099088037548505,0.9890789907787951,-0.02397,0.9147
1771240798.692303,22.5232,26.1504,1.5090961526732483,0.9929178868365702,-0.01652,0.3657
1771240798.7475667,22.5272,26.2,1.508113572756925,0.9925959349100721,-0.01845,-0.0583
1771240798.7926257,22.5311,26.2494,1.507057725574767,0.9929972910335657,-0.02343,-0.0728
1771240798.844046,22.5356,26.2992,1.5059993533289415,1.0033362746357772,-0.01917,-0.1675
1771240798.892063,22.536,26.3458,1.5049442285834682,1.0157596024650712,-0.01536,-0.4059
1771240798.9428718,22.5407,26.3964,1.5040707548590655,1.0227746428221616,-0.01973,0.1205
1771240798.9950333,22.5447,26.4472,1.503309078068016,1.0197148326860799,-0.01904,0.539
1771240799.0425546,22.5487,26.4985,1.5022772548917875,1.0300746380724068,-0.01934,-0.2746
1771240799.0947154,22.5528,26.5502,1.5012486180140632,1.0374040533948188,-0.02009,-0.0092
1771240799.1467087,22.5482,26.5958,1.5003323441395975,1.0430065627789693,-0.01332,-0.0145
1771240799.1934645,22.552,26.6476,1.4998535130220194,1.0410124927204283,-0.01386,0.232
1771240799.241877,22.5567,26.6998,1.4988809911358867,1.0538092616787917,-0.02649,0.2636
1771240799.299228,22.5616,26.7523,1.4975697956620433,1.0535004746083412,-0.03157,0.1641
1771240799.3435445,22.5652,26.8054,1.496584086741634,1.0576910040271688,-0.00899,-0.5886
1771240799.3930695,22.5681,26.8588,1.4959969097386678,1.0760951073209097,-0.00684,-0.7491
1771240799.4431226,22.5698,26.8971,1.4953910061962556,1.0830077608216848,-0.01353,-0.1867
1771240799.4936104,22.5741,26.951,1.494589222714596,1.0837610160916475,-0.01562,0.0201
1771240799.5454526,22.5789,27.005,1.493777046883896,1.0907130007476762,-0.01498,0.2076
1771240799.5980814,22.5836,27.0595,1.4932946695199947,1.0977402470530082,-0.00939,-0.0088
1771240799.647159,22.5884,27.1144,1.4929730446292937,1.1000622209675235,-0.00458,-0.3202
1771240799.6921003,22.5934,27.1692,1.4927063248025103,1.0993345623603399,-0.0067,0.1179
1771240799.7463748,22.608,27.237,1.4924777663821054,1.1169791269312064,-0.00338,0.1375
1771240799.7955885,22.6136,27.2929,1.492287482284093,1.1252067632217646,-0.001,-0.2066
1771240799.845794,22.6184,27.3492,1.4920942670042798,1.1350133259129604,-0.00025,-0.0864
1771240799.8923438,22.6224,27.4059,1.4923722847595378,1.1444118533115604,0.00844,0.3021
1771240799.94514,22.6257,27.4633,1.49313567034315,1.1508781429847386,0.0201,-0.3189
1771240799.9922574,22.64,27.5468,1.494274954776572,1.1703149020669608,0.02373,-0.3143
1771240800.0463252,22.6421,27.6055,1.4954332824735033,1.1832952505609071,0.02032,0.4609
1771240800.0931487,22.6438,27.6648,1.4967290747818738,1.1897234006272215,0.02531,0.2569
1771240800.148515,22.6451,27.7246,1.4981648508565197,1.2027985783164195,0.02947,0.1616
1771240800.19621,22.6462,27.7849,1.4998366338228242,1.2098366212013918,0.03229,0.329
1771240800.2629652,22.6476,27.8454,1.5016057780005767,1.2084937939435187,0.03683,0.0277
1771240800.3018928,22.6572,27.9005,1.5032671055936462,1.217210252996581,0.03287,0.3288
1771240800.3677993,22.6597,27.9616,1.504951854414038,1.2239891380237,0.03457,-0.005
1771240800.394279,22.6618,28.023,1.506575012943823,1.22783670738417,0.03556,-0.3969
1771240800.44437,22.6636,28.0844,1.508128054618554,1.235568035358636,0.03233,0.1494
1771240800.493026,22.6648,28.1463,1.5098442594198258,1.248383470733252,0.03259,0.5304
1771240800.5477755,22.6751,28.2117,1.5117582681658488,1.2346727056187807,0.03294,0.146
1771240800.592552,22.6769,28.2738,1.513392058482179,1.2318976986746912,0.03741,-0.7406
1771240800.6419766,22.6791,28.336,1.514931712158296,1.246607789162253,0.03797,-0.38
1771240800.6931915,22.6814,28.3988,1.5166713067249937,1.2655054049667271,0.03516,-0.4981
1771240800.744308,22.6837,28.462,1.518415175936812,1.2700945830921413,0.03515,0.0723
1771240800.7934604,22.6861,28.5251,1.520103669977363,1.2671140438018986,0.03228,0.6366
1771240800.8448694,22.6963,28.5802,1.521914738745066,1.2670723815157523,0.03511,0.1611
1771240800.894649,22.6981,28.6438,1.5237829710105915,1.27907662006621,0.03837,0.248
1771240800.9443147,22.6995,28.7079,1.5257310171203107,1.2807728018661233,0.04033,-0.3063
1771240800.993329,22.7007,28.772,1.5276805965948328,1.283239665845784,0.03942,-0.092
1771240801.0423374,22.7022,28.8367,1.5295462978949166,1.3031773670533109,0.03891,0.1511
1771240801.093921,22.7046,28.8618,1.5314957986247577,1.2928054223277377,0.0409,-0.0652
1771240801.156843,22.7052,28.9264,1.5336340120713008,1.29059667208621,0.04181,0.0006
1771240801.193298,22.7053,28.9912,1.5358033108544116,1.302174281730368,0.04328,0.2137
1771240801.2425954,22.705,29.0568,1.5378546210540218,1.3190723141662857,0.04332,0.1567
1771240801.2936878,22.7039,29.1234,1.5398187336744327,1.3355240544445464,0.04018,-0.2067
1771240801.343494,22.7057,29.1762,1.54204840217413,1.312388894344965,0.04127,-0.0855
1771240801.3934164,22.7041,29.2419,1.5442776150923974,1.3204060360358854,0.04351,0.3764
1771240801.442135,22.7022,29.3082,1.5464243815649832,1.3326735309144546,0.04231,0.1783
1771240801.4942317,22.7004,29.3748,1.548588010760487,1.332186683614575,0.04253,-0.0799
1771240801.5485268,22.6986,29.4415,1.5507297519595686,1.3314165238572038,0.04357,-0.1398
1771240801.5929425,22.6966,29.5081,1.5528887032329552,1.3346739864101644,0.04435,-0.4077
1771240801.642799,22.6974,29.5456,1.5551146452945495,1.3345720250327444,0.04622,-0.0479
1771240801.700174,22.6954,29.6126,1.5573380635181044,1.3534085340354554,0.04484,0.4084
1771240801.7437367,22.6936,29.6805,1.5596467348515188,1.359521949068863,0.0432,-0.0241
1771240801.7942505,22.6923,29.7484,1.5617272035764045,1.3544497074457953,0.04382,-0.2813
1771240801.846295,22.691,29.8163,1.563796007030592,1.3640500357391587,0.0449,-0.1141
1771240801.8977664,22.6894,29.8848,1.5660841526109803,1.3785602961060497,0.04914,0.0966
1771240801.9488149,22.6826,29.9213,1.5684938126030348,1.3704823165586633,0.0475,0.2986
1771240802.004226,22.6807,29.9898,1.5707149708338206,1.3779415553643775,0.03936,0.6789
1771240802.0434804,22.6796,30.0593,1.5727168413225259,1.3976456811366749,0.03492,0.1991
1771240802.0965896,22.6788,30.1298,1.5745547562579452,1.408203635842487,0.03831,-0.2022
1771240802.1622837,22.6785,30.2006,1.5765056268639996,1.4189098984784059,0.04117,0.1441
1771240802.2252777,22.6815,30.2842,1.5784769412398976,1.4338272211113863,0.03624,-0.1471
1771240802.2445245,22.6816,30.3561,1.5802937274992035,1.434575316949236,0.03875,-0.2575
1771240802.3032253,22.6813,30.4281,1.5819851832553808,1.4448000034606867,0.03503,-0.2263
1771240802.342703,22.6802,30.5005,1.5836880371981135,1.453757235579586,0.03074,0.1295
1771240802.402241,22.6782,30.5733,1.585493985448822,1.446384769001665,0.03656,-0.8542
1771240802.445731,22.6746,30.6421,1.5871797460474293,1.4525920624869186,0.0376,-0.6506
1771240802.5084176,22.6707,30.7149,1.5888844662162709,1.4602041295654524,0.03337,-0.4698
1771240802.5432353,22.666,30.7876,1.5905991709120284,1.4615202530242268,0.03236,0.1981
1771240802.608126,22.6609,30.8604,1.5922124939500393,1.456446706886318,0.03243,-0.3079
1771240802.6486804,22.6556,30.9332,1.5938982540284876,1.461828857972095,0.03526,-0.2074
1771240802.6927314,22.65,31.0065,1.5956518555016443,1.47514363029503,0.03787,0.0163
1771240802.7430103,22.6445,31.0804,1.5973862717581386,1.4923473322253102,0.03159,0.3015
1771240802.792183,22.6411,31.171,1.599066042316958,1.520213882978313,0.02657,0.2949
1771240802.8465922,22.6384,31.2474,1.6004192255048877,1.5296006406902425,0.02749,-0.1943
1771240802.895492,22.6365,31.3243,1.6017738968065431,1.54353639736807,0.03013,-0.0959
1771240802.9460516,22.6347,31.4016,1.6034487066617087,1.547705973368327,0.03665,-0.2638
1771240802.9932885,22.6338,31.4819,1.6052439520041186,1.5574012841910718,0.03384,-0.0789
1771240803.043112,22.631,31.5601,1.6067194492956465,1.5712169582842466,0.0258,-0.0562
1771240803.097599,22.6276,31.6388,1.607960061928703,1.5822891897500913,0.02429,0.086
1771240803.1423745,22.6235,31.718,1.6092234541111372,1.5871681101887096,0.02762,-0.491
1771240803.1995976,22.619,31.7971,1.6106331602236417,1.5872106255944736,0.02796,-0.2544
1771240803.2422917,22.6141,31.8764,1.6119384913636177,1.5940093004747493,0.02309,-0.1047
1771240803.2938955,22.6061,31.9441,1.6130689590735479,1.5952550423051481,0.01951,0.155
1771240803.3429663,22.6004,32.0239,1.6141236619873147,1.6083139307983376,0.01998,0.2679
1771240803.3929043,22.5934,32.104,1.6153528663663885,1.6059945361052759,0.02805,-0.4877
1771240803.4428625,22.5861,32.1803,1.6168310480067445,1.6026786608674863,0.0316,-0.3053
1771240803.4956234,22.5802,32.26,1.6185518551543794,1.605808883398021,0.0356,0.4584
1771240803.5492358,22.5759,32.3413,1.620023141917012,1.6478297393845032,0.02513,0.2885
1771240803.592495,22.5726,32.4233,1.6214095538433604,1.6346516937867834,0.02212,-0.4051
1771240803.6811266,22.5684,32.4767,1.6227845462349098,1.6257039859703855,0.0269,-0.1984
1771240803.695602,22.564,32.5576,1.6242423291669292,1.6146802686600217,0.0265,-0.6548
1771240803.7439878,22.5586,32.6388,1.6255272064523063,1.632636701780283,0.02659,-0.4007
1771240803.7986686,22.552,32.7205,1.6268179268598366,1.6370633830123988,0.03094,-0.9158
1771240803.854241,22.5452,32.8014,1.628265794578618,1.6449261199214995,0.03152,-0.2484
1771240803.905871,22.5363,32.883,1.6298806117637468,1.6367804800888848,0.03484,-0.4261
1771240803.9467618,22.5271,32.9641,1.6313426121319556,1.6308183099290983,0.02933,-0.1183
1771240803.995658,22.5188,33.0549,1.6325327745968916,1.634680901582936,0.02429,-0.1749
1771240804.0431116,22.5102,33.136,1.633848940222731,1.6325689112561221,0.02712,0.0606
1771240804.093515,22.5004,33.2167,1.6356479884570092,1.6112445003785119,0.04191,-0.7965
1771240804.1505556,22.4903,33.296,1.6379773397667035,1.5845332845983389,0.04806,-1.0434
1771240804.1932151,22.4819,33.3753,1.6396977124209442,1.6130223464044136,0.02707,0.4788
1771240804.2494884,22.4739,33.4548,1.6411467217294569,1.6102121009357744,0.02272,0.8567
1771240804.2925572,22.4675,33.5355,1.6426743710013998,1.6289254187960847,0.03894,0.0935
1771240804.347397,22.4606,33.6172,1.6447215626756888,1.6457929395886957,0.04394,-0.1405
1771240804.4049354,22.4521,33.7407,1.6468174047030502,1.6543105210328561,0.03464,-0.2728
1771240804.4488888,22.4457,33.8235,1.6482507244085565,1.67910476445039,0.02422,0.9554
1771240804.493008,22.4384,33.9074,1.6497073195252365,1.691113585777135,0.03034,0.5151
1771240804.5615585,22.4292,33.9918,1.6512708941677654,1.7109665689311409,0.03297,0.72
1771240804.5958118,22.418,34.0764,1.6531267692755958,1.7005633948782972,0.03579,-0.5252
1771240804.6423333,22.4071,34.158,1.6548321372216959,1.6715059676830353,0.03444,-1.0354
1771240804.6926975,22.3968,34.2401,1.6562339484591673,1.649969023951662,0.02836,-0.1119
1771240804.7456377,22.3871,34.3217,1.6579871585397716,1.6540528709808522,0.03181,1.0999
1771240804.793095,22.3778,34.4043,1.6593378064379436,1.6582267215311661,0.0349,-0.7903
1771240804.8429737,22.3698,34.4869,1.6608638352479461,1.687257256615007,0.02854,1.1094
1771240804.8949735,22.3634,34.5143,1.6624298625634935,1.6459706346104719,0.0327,-0.5625
1771240804.942402,22.3546,34.5955,1.6637539258687297,1.628150877529475,0.02635,-0.413
1771240804.9947777,22.345,34.6767,1.6650312208406592,1.6511833635305317,0.02641,0.9993
1771240805.0472617,22.3348,34.7591,1.6664106962405043,1.6749392854667897,0.02497,0.7151
1771240805.0941985,22.3241,34.8422,1.66780890319436,1.6611425285025967,0.03224,-1.2095
1771240805.145967,22.3198,34.9101,1.6691938533390103,1.6288463709018108,0.02838,-0.1762
1771240805.2010145,22.3083,34.9908,1.6704891593555533,1.6232299190194839,0.02677,-0.6805
1771240805.2447298,22.2981,35.071,1.6717769534001339,1.611233890532346,0.02153,0.082
1771240805.2968,22.2883,35.1508,1.6727047821286585,1.6055090438860815,0.01461,0.1678
1771240805.3456542,22.2806,35.2934,1.6732803953467201,1.5944910943620851,0.01738,-0.9016
1771240805.4029484,22.2689,35.3725,1.6741455117619128,1.6109654869052907,0.02222,0.5985
1771240805.4424443,22.2569,35.4511,1.6758339101962467,1.5839765907361134,0.03066,0.2982
1771240805.4979656,22.2446,35.5294,1.6773030744076893,1.571740487485132,0.03488,-0.8587
1771240805.548463,22.2332,35.6072,1.6780385144835237,1.5662661970431464,0.01546,-1.0421
1771240805.5953004,22.2245,35.6835,1.6790508186792334,1.5180005566533894,0.01288,0.0423
1771240805.6422238,22.2189,35.7746,1.6800154740276605,1.5079015518262457,0.01828,0.8933
1771240805.6940086,22.2098,35.8501,1.681171028306939,1.524553734704028,0.02295,-0.1042
1771240805.7424564,22.2011,35.9256,1.6826030919201838,1.5068107810869948,0.02769,-0.4321
1771240805.7927208,22.1922,35.9998,1.6838637149587787,1.4770088049839107,0.01972,-0.8786
1771240805.843428,22.1868,36.0853,1.6848102578119923,1.4542693285633166,0.01521,-0.7417
1771240805.8941574,22.1773,36.1568,1.6855529434810346,1.4383606536609654,0.01574,0.0584
1771240805.9422777,22.1668,36.2276,1.6861651463891738,1.4246603033705965,0.01197,-0.5556
1771240805.9956322,22.1555,36.2974,1.6869243515461365,1.4050820367508796,0.0156,-0.325
1771240806.0441291,22.1436,36.3659,1.6880313605873198,1.3756315676808233,0.0266,-0.4171
1771240806.0925512,22.1343,36.4533,1.6892636578272946,1.3456051278142485,0.027,-1.147
1771240806.1490586,22.1241,36.5187,1.690218048253804,1.3107308381204739,0.00945,-0.3904
1771240806.1961422,22.1155,36.5824,1.6909619959869566,1.2707014204761085,0.00855,0.5918
1771240806.2427087,22.1089,36.6442,1.6916216770179369,1.2103602852043684,0.01027,-1.1405
1771240806.304057,22.1027,36.7034,1.692449455592124,1.1660010977696376,0.01668,-0.9086
1771240806.3483727,22.1041,36.7583,1.6930992563473517,1.1145504071149048,0.00991,-1.3618
1771240806.3945916,22.0978,36.8125,1.6933389250098938,1.0640000422932323,0.00783,-1.2562
1771240806.4468515,22.0912,36.864,1.6935524382091531,1.0143008330865158,0.00688,-1.0476
1771240806.5020442,22.085,36.9128,1.6942025214924772,0.9618022925736869,0.01418,-0.7652
1771240806.5445282,22.079,36.9593,1.695005711640588,0.918003404133122,0.01528,-0.6871
1771240806.6017406,22.0799,37.002,1.6954237959219887,0.8750105656504954,0.01074,-0.9599
1771240806.6442344,22.0741,37.0445,1.6956095865644718,0.839013730519352,0.00771,-0.888
1771240806.705944,22.0684,37.0853,1.6958839611756868,0.8132730476291465,0.007,-0.6477
1771240806.742399,22.0629,37.1244,1.6963153646359328,0.7736023332436375,0.00706,-0.3933
1771240806.79771,22.0581,37.1618,1.6967294182535675,0.7331334189627423,0.00788,-0.7
1771240806.8439052,22.054,37.1971,1.6971923268787124,0.6886785316822356,0.00832,-0.7879
1771240806.8943672,22.0531,37.2158,1.697492287237957,0.6496335274599057,0.0074,-0.924
1771240806.9497366,22.0493,37.2469,1.6978065654469765,0.6049160024333957,0.00618,-0.7457
1771240806.9964013,22.0456,37.2761,1.698167011175156,0.5731008724474252,0.00753,-0.7273
1771240807.042524,22.0422,37.3037,1.6985029234896174,0.5397148228462879,0.00632,-0.6902
1771240807.0945249,22.0392,37.3296,1.6988422130777798,0.5003705127203241,0.00602,-0.9221
1771240807.1426015,22.0396,37.3155,1.6990301907566792,0.45297789129272087,0.00543,-0.7885
1771240807.1933944,22.0372,37.337,1.6991996388777955,0.41433784524226125,0.00175,-0.696
1771240807.2488797,22.0347,37.3567,1.6993843810693192,0.3787015975672667,0.00404,-0.6596
1771240807.292469,22.0324,37.3746,1.6995901374562137,0.34430145221883685,0.00353,-0.59
1771240807.3429954,22.0303,37.3908,1.6997686947752717,0.310702719653369,0.00167,-0.5045
1771240807.3952217,22.0329,37.3563,1.6997868964670244,0.26711684709130573,-0.00115,-0.667
1771240807.446049,22.0315,37.3687,1.6997838886349397,0.2358035835181476,0.00115,-0.6433
1771240807.4922662,22.0301,37.3797,1.6999019434215563,0.20690241661227643,0.00349,-0.6861
1771240807.5456457,22.0288,37.3893,1.7000776479051578,0.17680011312213578,0.00309,-0.6315
1771240807.594865,22.0278,37.3973,1.7002019464541593,0.14700982960332956,0.00222,-0.5968
1771240807.647458,22.0271,37.4039,1.700268599735513,0.11791916722908112,0.00097,-0.5708
1771240807.696036,22.0307,37.4091,1.7002443918178274,0.09093211753830437,0.00026,-0.5706
1771240807.745582,22.0304,37.4129,1.700283823772311,0.06139983713333449,0.00072,-0.6046
1771240807.7935228,22.0303,37.4152,1.7003869496748576,0.03121938500355188,0.00238,-0.5932
1771240807.8425283,22.0305,37.4161,1.700462458991399,0.006555150646628954,0.00067,-0.6113
1771240807.8955605,22.0305,37.4161,1.700462458991399,0.006555150646628954,-0.00111,-0.5201
1771240807.9459994,22.0317,37.4138,1.7003959521504508,0.049200914625644916,-0.00125,-0.5568
1771240807.9975286,22.0319,37.4108,1.7003442379338647,0.06890174163255962,-0.00146,-0.2155
1771240808.046842,22.0318,37.4069,1.700371863680195,0.08709041279038697,0.00052,-0.2468
1771240808.095408,22.0316,37.4024,1.7004120336552786,0.09106310998423016,0.00131,-0.0764
1771240808.1459568,22.0313,37.3978,1.700398326628893,0.09162063086445105,-0.00101,-0.0311
1771240808.1954432,22.0297,37.4215,1.700312301266934,0.09045540337647055,-0.00302,-0.1603
1771240808.2449293,22.0304,37.4169,1.700053615845718,0.09205270229602171,-0.00687,0.0345
1771240808.2921665,22.0313,37.4125,1.6998819141364157,0.08557692445980984,-0.00216,0.2467
1771240808.345818,22.0318,37.4086,1.7000514745641084,0.07512403077577773,0.00589,0.318
1771240808.3933752,22.0323,37.405,1.7002274382092784,0.06990579375130505,-0.00068,0.2944
1771240808.4448814,22.0327,37.4016,1.7001484245623146,0.06950258987980233,-0.00597,0.065
1771240808.4994762,22.0311,37.4339,1.6999033901809146,0.055980443013609674,-0.00343,0.1355
1771240808.5454965,22.0313,37.4313,1.6998938631368783,0.05160484473380382,0.00164,0.0676
1771240808.5933833,22.0313,37.4289,1.7000363311485767,0.048977647963127015,0.00256,-0.1116
1771240808.6561089,22.0315,37.4266,1.700060371923755,0.045600986831427236,-0.00012,0.0592
1771240808.692689,22.0319,37.4244,1.6999389495941961,0.04180765480148342,-0.00261,0.0759
1771240808.749977,22.0301,37.4463,1.6998515524796447,0.034047173157253446,-5e-05,0.0428
1771240808.7947114,22.03,37.4446,1.699890966141655,0.03202499024199695,0.00067,0.0652
1771240808.8524876,22.0301,37.4431,1.6999001656550576,0.029424479604574148,-0.00068,0.0598
1771240808.894146,22.0303,37.4417,1.6998516835121,0.027426264783962106,-0.00074,0.0623
1771240808.9438703,22.0305,37.4404,1.699839251243218,0.024501836665850176,0.00097,0.0782
1771240808.9927084,22.0283,37.4515,1.6997788223144588,0.018356470248934026,0.00023,0.0255
1771240809.043498,22.0283,37.4506,1.6997702687285132,0.01520690632574555,5e-05,0.1101
1771240809.0952222,22.0283,37.4506,1.6997702687285132,0.01520690632574555,-0.00068,0.0717
1771240809.1465254,22.0283,37.4506,1.6997702687285132,0.01520690632574555,0.00013,0.0791
1771240809.1926453,22.0283,37.4506,1.6997702687285132,0.01520690632574555,0.00025,0.068
1771240809.2420027,22.0283,37.4506,1.6997702687285132,0.01520690632574555,4e-05,0.0818
1771240809.2920413,22.0279,37.4597,1.6996671108843537,0.008509406559801924,-0.00104,0.0538
1771240809.3423154,22.0279,37.4597,1.6996671108843537,0.008509406559801924,-6e-05,0.0526
1771240809.3920815,22.0279,37.4597,1.6996671108843537,0.008509406559801924,0.00013,-0.0239
1771240809.4485,22.0279,37.4597,1.6996671108843537,0.008509406559801924,-0.00046,0.1016
1771240809.4925663,22.0279,37.4597,1.6996671108843537,0.008509406559801924,-0.00029,0.3388
1771240809.5427415,22.0279,37.4597,1.6996671108843537,0.008509406559801924,0.00055,0.41
1771240809.5973687,22.0248,37.4695,1.6996031807545053,0.006815423684555496,0.0006,0.471
1771240809.643021,22.0248,37.4695,1.6996031807545053,0.006815423684555496,-5e-05,0.4017
1771240809.6938517,22.0248,37.4695,1.6996031807545053,0.006815423684555496,0.00139,0.5533
1771240809.7423034,22.0248,37.4695,1.6996031807545053,0.006815423684555496,0.00074,0.444
1771240809.7961988,22.0183,37.5026,1.6998077409006427,0.15027351729429905,0.00111,0.456
1771240809.8429978,22.0171,37.5104,1.6998741734928224,0.1677324655515443,0.00078,0.3962
1771240809.8928783,22.0158,37.5191,1.6999551095717873,0.18311321634442448,0.00182,0.3682
1771240809.9420974,22.0144,37.5285,1.7000608928286525,0.19465918935411192,0.00196,0.2099
1771240809.993161,22.0128,37.5384,1.7001549430661251,0.20989759407863634,0.00226,0.3589
1771240810.0461657,22.0111,37.5492,1.7002365485634803,0.2232580793610838,0.00123,0.2449
1771240810.098106,22.0092,37.5604,1.7002586869550904,0.2320156029235965,-0.00019,0.2622
1771240810.146276,22.006,37.5955,1.7002718029045234,0.2441619544482719,0.00101,0.3729
1771240810.2015226,22.0042,37.6079,1.7003840556148153,0.25810435873886356,0.00313,0.2452
1771240810.24286,22.0025,37.6211,1.7005502793232123,0.273502632528464,0.0029,0.3148
1771240810.29987,22.0009,37.635,1.700634056648031,0.2859386297791888,0.00071,0.2986
1771240810.3433025,22.0004,37.643,1.700649119095038,0.28920914577516393,-0.00011,0.2517
1771240810.3995607,21.9982,37.6577,1.700719685306776,0.30498080267452904,0.00229,0.3466
1771240810.4501526,21.9956,37.6731,1.7009383462515701,0.32126515528454064,0.00418,0.3293
1771240810.4983623,21.993,37.6894,1.7010396401523784,0.3370149106493658,-0.00089,0.3785
1771240810.5452237,21.9907,37.7065,1.700919171166654,0.3525081701180839,-0.00231,0.4147
1771240810.5930252,21.9885,37.7244,1.7008729346131057,0.3683091771867761,0.00197,0.2495
1771240810.641849,21.987,37.7358,1.7010761046489122,0.3800015921019279,0.00431,0.2912
1771240810.6960196,21.9846,37.7548,1.7012780934259333,0.38431020022892964,0.0013,0.0739
1771240810.743771,21.9823,37.7741,1.7012131311162642,0.3934504416060554,-0.00109,0.1531
1771240810.797567,21.9801,37.7939,1.7010125026576686,0.402055829456557,-0.00412,0.2057
1771240810.8427677,21.9776,37.8142,1.700963295427237,0.41660634896746357,0.00033,0.3396
1771240810.8996751,21.975,37.8351,1.7010202915752484,0.428405648888994,0.00141,0.2955
1771240810.9451723,21.973,37.8529,1.701013903766892,0.4290042074385751,-0.00142,0.2047
1771240811.0027783,21.9704,37.8745,1.70086219581994,0.4422915780342194,-0.00417,0.3793
1771240811.045112,21.968,37.8969,1.7006345486967382,0.45570324773914,-0.00466,0.2996
1771240811.0966482,21.9654,37.9199,1.70047700298783,0.47023701470641377,-0.00136,0.3125
1771240811.1489992,21.9627,37.9436,1.7004524950273296,0.4845781051595294,-0.00069,0.33
1771240811.199134,21.9617,37.9627,1.7003642894128086,0.4936608248585257,-0.00257,0.3291
1771240811.243657,21.959,37.9877,1.7001071231670588,0.5108731545109804,-0.00554,0.2814
1771240811.2975757,21.9563,38.0136,1.6998339854939413,0.530851937926198,-0.00472,0.4818
1771240811.3505185,21.9533,38.0402,1.6997047877738376,0.5416651364080948,-0.00214,0.318
1771240811.3941762,21.9502,38.0676,1.6996083014560115,0.5614436570128831,-0.00121,0.4191
1771240811.4428892,21.9492,38.0954,1.6993783166316039,0.5767899097591774,-0.00531,0.4967
1771240811.4923282,21.9465,38.1246,1.6991476696290408,0.5923623637605616,-0.00427,0.2863
1771240811.5453026,21.9437,38.1544,1.6989110421684763,0.6052438929886034,-0.00247,0.2286
1771240811.596881,21.9408,38.1849,1.6987346316894054,0.6213790228194062,-0.00315,0.398
1771240811.6472297,21.9379,38.2163,1.6985970317067944,0.641727520058163,-0.00253,0.3788
1771240811.698304,21.9348,38.2484,1.6983433351363926,0.6523066763417342,-0.00694,0.3517
1771240811.7424865,21.9323,38.2852,1.697956193009735,0.664909956309875,-0.00692,0.3697
1771240811.7926848,21.9289,38.3187,1.6977323120985663,0.6813718001209031,-0.00289,0.2958
1771240811.8420198,21.9253,38.353,1.6975630694606771,0.6998716596633986,-0.00164,0.2768
1771240811.893819,21.9217,38.3881,1.6973876502919962,0.7127479849147244,-0.00418,0.2301
1771240811.9441342,21.918,38.424,1.697109623164906,0.7319727112399751,-0.0058,0.5916
1771240811.9940228,21.915,38.4666,1.69677260675309,0.7351995783459074,-0.00709,0.3813
1771240812.042322,21.9108,38.5035,1.696402293401413,0.7490482294218443,-0.00944,0.3929
1771240812.0941696,21.9065,38.5411,1.6960200206510456,0.7629554705223628,-0.0058,0.2752
1771240812.142929,21.9021,38.5793,1.695786601402579,0.7761606148214428,-0.00487,0.3575
1771240812.1941478,21.8979,38.6182,1.6956096861592942,0.7913826128997276,-0.00541,0.4262
1771240812.2443197,21.8938,38.6579,1.695298309627456,0.8031255443577923,-0.0083,0.3232
1771240812.292081,21.8894,38.6981,1.6948735633174832,0.8174258437314055,-0.01153,0.425
1771240812.3432412,21.8809,38.7463,1.6944393586634194,0.8330893349455387,-0.00531,-0.0775
1771240812.395735,21.8762,38.788,1.6941793787561943,0.8454615307629318,-0.00162,0.0194
1771240812.4465785,21.8715,38.8302,1.694040359775367,0.8547612064196644,-0.00431,0.1944
1771240812.4919398,21.8673,38.8732,1.6937716379455146,0.8721149580187236,-0.00473,0.5186
1771240812.5559826,21.8632,38.9169,1.6934266586114874,0.8875549842122459,-0.0076,0.6279
1771240812.5930443,21.8532,38.9687,1.6931030486802463,0.8994201743345543,-0.00649,0.5737
1771240812.651963,21.8486,39.0137,1.692823931196418,0.9096607389571125,-0.00618,0.3447
1771240812.6932185,21.8439,39.0591,1.6924722371985468,0.9179129588365118,-0.00723,0.3358
1771240812.7492995,21.839,39.1052,1.6921295357299981,0.9338796924657907,-0.00655,0.2561
1771240812.794413,21.834,39.152,1.691775212709291,0.9517150834151994,-0.00688,0.4494
1771240812.8471506,21.8262,39.1994,1.691451880684733,0.9709559207296693,-0.00605,0.5246
1771240812.893558,21.8211,39.2479,1.691099937930839,0.9830954022880994,-0.00529,0.3126
1771240812.953903,21.8163,39.2971,1.69074052417729,0.9976404011466256,-0.00752,0.3523
1771240812.993743,21.8113,39.3471,1.690444413400479,1.0098665258339836,-0.0064,0.4369
1771240813.0515344,21.8063,39.3978,1.6900450895975287,1.0291386689848943,-0.00651,0.4936
1771240813.11369,21.799,39.4464,1.6895796480772889,1.034669000212145,-0.00962,0.5066
1771240813.152656,21.7938,39.4981,1.689239119840994,1.0450050382653664,-0.00778,0.3908
1771240813.1999817,21.7888,39.5505,1.6888934347582685,1.0613514121157044,-0.00673,0.5488
1771240813.245056,21.7837,39.6035,1.6885810708736826,1.0664468950679167,-0.01039,0.066
1771240813.292163,21.7785,39.657,1.6881205492333993,1.0823811158737018,-0.0103,0.3379
1771240813.3420825,21.7741,39.7108,1.6876068018789283,1.0976870091241855,-0.00796,0.1454
1771240813.3927886,21.7686,39.7659,1.687207613777423,1.1114468048449282,-0.0075,0.0052
1771240813.443696,21.7631,39.8214,1.6869222473070395,1.1177188600001342,-0.00493,0.2362
1771240813.496239,21.7575,39.8777,1.6865262855420846,1.1403696988257799,-0.00248,0.1818
1771240813.5449784,21.752,39.9348,1.6860416663185802,1.1609480996151378,-0.01034,0.534
1771240813.5988312,21.7463,39.9928,1.6856260612476328,1.1722689196596485,-0.00915,0.4308
1771240813.642904,21.7413,40.0486,1.685237521766213,1.179207479623497,-0.00744,0.4252
1771240813.694202,21.7344,40.1074,1.684921897432669,1.1906211698101123,-0.0077,0.6256
1771240813.747514,21.7272,40.1668,1.6846068274606216,1.1967145440747347,-0.0077,0.305
1771240813.7975268,21.72,40.2266,1.6841197440719573,1.2115185264782375,-0.00844,0.064
1771240813.8418243,21.7127,40.2871,1.6836393578802347,1.2218495161025353,-0.00809,-0.0866
1771240813.8925543,21.7052,40.348,1.6833539833223454,1.234989886598267,-0.00527,0.2948
1771240813.9427204,21.6977,40.4096,1.6831088467671014,1.2479361602261552,-0.00558,0.2684
1771240813.9954562,21.6957,40.4704,1.682809323953315,1.2521012938257032,-0.00743,0.4416
1771240814.0517,21.6891,40.5329,1.6823550177030901,1.262933509730421,-0.00889,0.3081
1771240814.093505,21.6827,40.5964,1.6818843223371291,1.2854958770840148,-0.0077,0.3149
1771240814.1428032,21.6766,40.6609,1.6814129112800837,1.305256315824597,-0.01,0.3858
1771240814.1922626,21.6775,40.7132,1.6808272763338838,1.3052491141540759,-0.01065,0.2718
1771240814.242288,21.6718,40.7785,1.6801937983960908,1.3125224950453231,-0.01441,0.1126
1771240814.2953982,21.6664,40.844,1.6794383923823304,1.3176861917770861,-0.01484,0.2847
1771240814.3423147,21.6611,40.91,1.6785296615256582,1.3297459343799476,-0.01493,-0.0107
1771240814.3924718,21.656,40.9767,1.6776488487055758,1.3448497611257548,-0.01579,0.1975
1771240814.4419286,21.6519,41.0412,1.676736256019727,1.3444530672358928,-0.01841,-0.12
1771240814.4945486,21.647,41.1082,1.6758757544930996,1.345742278447103,-0.0148,0.0783
1771240814.543599,21.6423,41.176,1.6750759028322548,1.3724404868700135,-0.01647,0.4871
1771240814.5975735,21.6379,41.2445,1.6742473903612265,1.3681705778155002,-0.01969,-0.3947
1771240814.6454694,21.6333,41.3127,1.6732828897779273,1.3672000036571095,-0.02002,0.1717
1771240814.6978247,21.6289,41.3814,1.6722262586237324,1.3852249636791854,-0.02008,0.3634
1771240814.7455814,21.6266,41.4442,1.671235905255591,1.4039987749282403,-0.01727,-0.1133
1771240814.7978716,21.6216,41.5144,1.670275843285058,1.4117223523058633,-0.01845,0.0844
1771240814.847331,21.6167,41.5849,1.6693404187053489,1.4178201049498487,-0.0208,0.2837
1771240814.896577,21.6118,41.6558,1.6684351885173658,1.4223016733450047,-0.01647,-0.0301
1771240814.950264,21.6068,41.7272,1.6673993862130176,1.4416330497043968,-0.02065,0.275
1771240814.998732,21.6065,41.8027,1.6664119703716884,1.4512998897540093,-0.02019,0.1488
1771240815.0475335,21.6019,41.8753,1.6653654319552709,1.4592878400096396,-0.01849,0.1488
1771240815.1032207,21.5971,41.9485,1.664331469481518,1.472569512790483,-0.01758,-0.1028
1771240815.1444464,21.5928,42.0221,1.6634317013114486,1.4845489988545344,-0.02239,0.5293
1771240815.205094,21.5883,42.0963,1.662535274526513,1.4905918287713777,-0.01867,0.2864
1771240815.2446172,21.5837,42.171,1.6614344925243707,1.4999251247979013,-0.02078,0.1379
1771240815.303435,21.5789,42.246,1.6602719698510024,1.5101765525924444,-0.02294,0.4021
1771240815.344967,21.5753,42.3165,1.6591965713640136,1.5095509299126015,-0.01964,0.0949
1771240815.392861,21.5694,42.3919,1.658197595169251,1.5240858407583218,-0.02025,0.44
1771240815.4489894,21.5644,42.4684,1.6571095020524418,1.5408543247172979,-0.02297,0.4303
1771240815.4926257,21.5601,42.5456,1.6558590899002121,1.548046924353393,-0.02478,0.105
1771240815.5437334,21.5575,42.6259,1.6546091336135416,1.5613963814483496,-0.02519,0.3978
1771240815.591916,21.5536,42.7041,1.6534769467971524,1.5697290976471066,-0.02341,0.2958
1771240815.643837,21.55,42.7827,1.6524101191188643,1.5758399062087494,-0.02215,0.2409
1771240815.6921346,21.5466,42.8617,1.651305683663546,1.584736249348768,-0.0211,0.3975
1771240815.7431705,21.5448,42.9409,1.6502886584136558,1.5927346451936053,-0.02011,0.397
1771240815.798251,21.5413,43.0207,1.6491399856937932,1.603587768100019,-0.02319,0.5026
1771240815.8428133,21.5381,43.1011,1.647847150687278,1.621203568340509,-0.02379,0.5859
1771240815.896202,21.5349,43.1825,1.6466310135668507,1.6392738697362317,-0.02366,0.7283
1771240815.9428964,21.532,43.2643,1.645591970289084,1.6402607993852685,-0.02501,0.5157
1771240815.9932306,21.5292,43.3462,1.6445155604273702,1.636176472755919,-0.02221,-0.0367
1771240816.0463035,21.5293,43.427,1.6433636835622478,1.6428903097894272,-0.01903,0.2673
1771240816.0931852,21.5266,43.5094,1.6422039919964824,1.650616472715573,-0.02227,-0.2702
1771240816.142368,21.5239,43.5919,1.6409922030740258,1.6492461338441875,-0.02459,-0.0972
1771240816.1965818,21.5212,43.6742,1.6397958919863334,1.649767698798834,-0.02223,0.3364
1771240816.2457836,21.5181,43.7567,1.6386910890074389,1.6538083837010864,-0.02231,0.0999
1771240816.2922194,21.5201,43.8304,1.6375575034536647,1.6452234924167597,-0.02412,-0.1192
1771240816.3436792,21.517,43.9123,1.6364540298336963,1.6277760073179601,-0.02498,-0.4561
1771240816.3923004,21.5142,43.9935,1.6352783878834445,1.6248885900270211,-0.02317,-0.135
1771240816.4448202,21.5118,44.075,1.6339862702980075,1.630806956693526,-0.0262,-0.1822
1771240816.492965,21.5099,44.1564,1.6327595380288562,1.6221323497174946,-0.02468,-0.4027
1771240816.546336,21.5079,44.2374,1.6316618647385561,1.6192248145331765,-0.02022,0.144
1771240816.5933802,21.5079,44.3169,1.6305712769589789,1.6195331827412491,-0.02335,0.2977
1771240816.6452138,21.5065,44.3981,1.629404527368713,1.6217095455105395,-0.02425,-0.2041
1771240816.6928065,21.5051,44.479,1.6281630081147191,1.615489959733579,-0.02341,-0.0203
1771240816.7424345,21.504,44.5595,1.627009534527735,1.6067822161077088,-0.02167,-0.2863
1771240816.7924654,21.5031,44.6398,1.625932478491233,1.604097643536702,-0.02146,-0.0905
1771240816.845644,21.497,44.7199,1.6247571856225091,1.6035549133098,-0.0256,-0.0715
1771240816.897929,21.4964,44.7997,1.6235479898908476,1.5860854232985058,-0.02556,-0.3854
1771240816.94782,21.4958,44.8787,1.6223482244560674,1.5733658252294667,-0.02476,-0.2263
1771240816.9925735,21.4951,44.9572,1.6211693923168995,1.5660574861734802,-0.0228,-0.1997
1771240817.044473,21.4942,45.0355,1.620066802034496,1.5636959199281681,-0.02024,-0.0871
1771240817.0965276,21.4932,45.1135,1.6190256824183893,1.5530565540249976,-0.0192,-0.2539
1771240817.146725,21.4924,45.1907,1.6179648031105172,1.5388353063274836,-0.02174,-0.264
1771240817.1924782,21.4844,45.2723,1.61684659651634,1.539904078181495,-0.02303,0.2994
1771240817.2498732,21.4837,45.3494,1.615801420667949,1.5428643913189521,-0.01924,-0.0632
1771240817.2933767,21.4826,45.4266,1.6148263529398101,1.534753100664729,-0.02054,-0.2649
1771240817.3545182,21.4813,45.5029,1.6138602811477243,1.5165161390502904,-0.02215,-0.2918
1771240817.3924208,21.4762,45.5931,1.6127503164873775,1.5210871934244927,-0.02243,0.1303
1771240817.4422796,21.4762,45.6693,1.6115659144960441,1.5251350366442966,-0.0241,0.1376
1771240817.496952,21.4764,45.7454,1.6104949220501827,1.516615076411942,-0.02136,-0.2879
1771240817.542626,21.4769,45.8209,1.6094706451649265,1.5055959683792994,-0.0199,-0.1904
1771240817.5924203,21.4775,45.8961,1.6084759934931407,1.4990613096201237,-0.0202,-0.1107
1771240817.6434038,21.4775,45.9728,1.6073948828800289,1.5112122584203718,-0.02042,-0.1324
1771240817.692117,21.4787,46.0484,1.60622002719862,1.5074223595263538,-0.02238,-0.3237
1771240817.7425685,21.4796,46.1233,1.6050833969250446,1.4874268385369414,-0.02143,-0.6961
1771240817.795432,21.4804,46.1976,1.6040844403790129,1.496654686292065,-0.02204,0.5845
1771240817.8440285,21.4815,46.2723,1.6031051624832282,1.4908927694505731,-0.02136,0.0829
1771240817.8923914,21.4821,46.3465,1.6020765837891755,1.474206830807672,-0.02034,-0.2525
1771240817.944052,21.4793,46.4275,1.6011541239683187,1.463307821341771,-0.01736,-0.0719
1771240817.9926157,21.48,46.5008,1.6002590602775149,1.4675426297045002,-0.01759,-0.0178
1771240818.0442083,21.4807,46.5741,1.5992330467948914,1.4592032243659552,-0.02123,-0.2813
1771240818.094839,21.4812,46.6467,1.5982001673043071,1.4499984448267524,-0.02146,-0.0272
1771240818.1432295,21.4816,46.7191,1.597293512428168,1.4451914544447042,-0.01832,0.011
1771240818.1920483,21.4806,46.7905,1.596385063293488,1.4306854196503156,-0.01834,-0.4407
1771240818.2430909,21.4812,46.8618,1.5953676012997429,1.4219840013164704,-0.0187,-0.3755
1771240818.294596,21.4818,46.9329,1.594390846129586,1.4241953868763935,-0.0188,0.1923
1771240818.3450298,21.4825,47.004,1.5934932402487731,1.4206160705834634,-0.01721,-0.0189
1771240818.3984172,21.483,47.0747,1.5927587789907076,1.408310480682438,-0.01431,-0.2168
1771240818.4466493,21.4828,47.1449,1.5920832313988549,1.3960829380806858,-0.0147,-0.3331
1771240818.4930325,21.4886,47.1272,1.5911460380494895,1.3585743189093484,-0.01935,-0.1494
1771240818.542684,21.4887,47.1952,1.5901514933126368,1.3544899630488223,-0.01902,-0.2687
1771240818.604655,21.4887,47.2629,1.5892028634033726,1.345173431197628,-0.01412,-0.7818
1771240818.642846,21.4888,47.3301,1.5884257105121877,1.3462038367201308,-0.01463,0.1892
1771240818.693092,21.4896,47.3972,1.5878263708145326,1.337594650856529,-0.01547,-0.052
1771240818.7446828,21.4912,47.464,1.5869907131181065,1.334912809886848,-0.01855,-0.092
1771240818.7971802,21.4914,47.5591,1.585984542459396,1.339912123984256,-0.01962,-0.0607
1771240818.8453968,21.4933,47.6258,1.585078566943738,1.329829049163839,-0.01604,-0.176
1771240818.8920069,21.4948,47.6923,1.5843208370709079,1.3352029995472599,-0.01464,0.3021
1771240818.9436378,21.4964,47.7589,1.5836403842096491,1.3250361693176531,-0.01527,-0.2262
1771240818.992235,21.4989,47.8323,1.5828043055950631,1.3104006257629761,-0.01047,-1.0753
1771240819.0425196,21.5007,47.898,1.5818180051745352,1.313040783829657,-0.0166,-0.6256
1771240819.0968752,21.5026,47.9636,1.5810028764829545,1.3174859164332648,-0.01759,0.1742
1771240819.1431975,21.5044,48.0291,1.5802702532575426,1.3032120932526678,-0.0152,-0.0993
1771240819.1953712,21.5062,48.0939,1.5794582428339665,1.2913028769425088,-0.01683,-0.1908
1771240819.2442553,21.5077,48.1583,1.578653335070895,1.287900450345445,-0.01856,0.1827
1771240819.3020406,21.5091,48.2228,1.5778445143346487,1.2878145246890176,-0.01438,-0.103
1771240819.3426185,21.5105,48.2879,1.5769811378819678,1.2848866253487115,-0.01378,-0.1285
1771240819.404591,21.5124,48.3518,1.5762038744895697,1.2767361708669493,-0.01746,-0.0515
1771240819.4449754,21.5145,48.4153,1.575414870604277,1.2717394583797421,-0.01617,0.158
1771240819.5022254,21.5166,48.4789,1.5746014576943668,1.2705000629673342,-0.017,-0.0391
1771240819.5424726,21.5186,48.5616,1.573744356975133,1.271552201051927,-0.01549,-0.1393
1771240819.596419,21.5209,48.6249,1.57299424818827,1.2595148986812343,-0.01464,-0.3151
1771240819.6437974,21.5231,48.6876,1.5721785840884217,1.254099872418461,-0.01594,0.0584
1771240819.7021563,21.5254,48.7503,1.571343912306739,1.2537222858352641,-0.01665,-0.023
1771240819.7436724,21.5275,48.8127,1.5705063788351474,1.2475414261658808,-0.01676,-0.0904
1771240819.793118,21.5295,48.8749,1.5697339508138297,1.2398373844984674,-0.01522,0.1132
1771240819.843865,21.5315,48.9368,1.5689724974307504,1.2339050409168446,-0.01382,-0.2165
1771240819.8924625,21.5335,48.9985,1.5681563556089595,1.2341944133725449,-0.0151,-0.068
1771240819.943747,21.5357,49.0598,1.567395796864562,1.226107748120042,-0.01784,0.1976
1771240819.9988368,21.538,49.1209,1.566777087973827,1.2175666224071684,-0.01272,-0.046
1771240820.0417986,21.5406,49.1816,1.5660686165709283,1.2100519823544773,-0.01329,-0.1281
1771240820.0967002,21.5405,49.2312,1.5652416466119161,1.1963655377851705,-0.01456,-0.2161
1771240820.142387,21.5428,49.2909,1.5644826586904002,1.1948209321902592,-0.01449,-0.1435
1771240820.193499,21.5452,49.3505,1.5637467251126373,1.1895066750548313,-0.01435,-0.1279
1771240820.2418823,21.5478,49.4097,1.5629492087301613,1.1829753420929787,-0.01652,0.0326
1771240820.293996,21.5506,49.4685,1.5621210271716168,1.1779113082061825,-0.01747,0.1799
1771240820.3444078,21.5536,49.5272,1.5613355075485527,1.1718454377604584,-0.01465,-0.1857
1771240820.39223,21.5515,49.5823,1.560713555075551,1.1662172739245462,-0.01135,0.061
1771240820.4419963,21.5544,49.6403,1.5600664847678554,1.1573669469965004,-0.01313,0.0749
1771240820.49226,21.5573,49.698,1.5592310674365857,1.1545140969256287,-0.01541,-0.0207
1771240820.5441277,21.5599,49.7557,1.5584042349751692,1.1593375392869845,-0.01636,0.3083
1771240820.5925777,21.5624,49.8136,1.5576706627898254,1.1577993306268577,-0.01399,-0.1611
1771240820.6447704,21.5608,49.8332,1.5569598003566505,1.1369357809480711,-0.01332,-0.3867
1771240820.6924224,21.5634,49.89,1.556316630027457,1.1346712343229648,-0.01556,-0.0684
1771240820.7436893,21.5661,49.9467,1.555533312976686,1.1349363374216195,-0.01385,-0.1668
1771240820.7938156,21.5685,50.0035,1.5546998023300633,1.1400242848290558,-0.01458,0.156
1771240820.8422236,21.5708,50.0604,1.5539957340076898,1.142600424470427,-0.01602,0.4655
1771240820.9012785,21.5731,50.1173,1.5533341464158363,1.142070794653291,-0.01342,0.4075
1771240820.94323,21.5757,50.1744,1.5526419009868793,1.1420962568890591,-0.0146,-0.0774
1771240820.993095,21.5736,50.2585,1.5519104345942119,1.149400026100574,-0.01539,-0.0497
1771240821.0476415,21.5764,50.316,1.551154140056035,1.152806193598907,-0.01534,0.2954
1771240821.0958974,21.579,50.3736,1.5504150337959062,1.1541817274588955,-0.01303,-0.021
1771240821.148383,21.5816,50.4313,1.5497184864470819,1.1545275613860415,-0.01323,-0.1797
1771240821.1940722,21.5871,50.5182,1.54896891891254,1.1709363987851773,-0.01571,0.326
1771240821.245226,21.5905,50.5768,1.5483476616544805,1.171016720632118,-0.01217,-0.2823
1771240821.298395,21.5938,50.6353,1.5478413760443899,1.1741894225379481,-0.00754,0.1744
1771240821.3454063,21.597,50.6941,1.5474357529378444,1.1795090588884853,-0.00684,-0.0529
1771240821.396616,21.6001,50.7531,1.5470859904606264,1.1825882334946514,-0.00701,0.0918
1771240821.447183,21.598,50.8106,1.5468486408786348,1.1827217170577364,-0.00365,0.2625
1771240821.4947195,21.6005,50.8699,1.546723589492065,1.1891053864145096,-0.00057,0.0683
1771240821.554171,21.6031,50.9296,1.5466983540204406,1.200914905395049,0.00067,0.1012
1771240821.5956662,21.6062,50.9897,1.546776052810222,1.2087670784729372,0.00242,0.3371
1771240821.6522117,21.6095,51.0501,1.5469094284333202,1.210662471541924,0.00434,0.0013
1771240821.6925216,21.6128,51.1108,1.5471491153054637,1.2204523956304072,0.00612,0.4201
1771240821.746735,21.6081,51.2035,1.54758506946486,1.2271278050798131,0.00724,0.2175
1771240821.7944288,21.6111,51.2649,1.5480270992893843,1.2286329191422474,0.00864,-0.0151
1771240821.8427508,21.6137,51.3264,1.5484667633529294,1.2304187417298227,0.00973,-0.0786
1771240821.894765,21.6161,51.388,1.548999028524755,1.2364281337789107,0.01222,0.0571
1771240821.945029,21.6182,51.4499,1.5496571123979337,1.238204676133958,0.01386,0.0925
1771240821.9938152,21.6155,51.5016,1.550340923946763,1.2386647205761532,0.01318,0.1815
1771240822.0459747,21.6177,51.5636,1.5508773991239448,1.2434245654642666,0.00958,0.1765
1771240822.0940337,21.6195,51.6258,1.5513930420565727,1.2427297574291845,0.01099,-0.0077
1771240822.1434827,21.621,51.688,1.552063126839324,1.2486179760038696,0.01365,0.2846
1771240822.192876,21.6223,51.7507,1.5528520576208522,1.256800322246935,0.01628,0.0736
1771240822.242514,21.6155,51.7574,1.5536891225634382,1.2287431708864143,0.01515,-0.0402
1771240822.2921095,21.616,51.8187,1.5545489671161383,1.225381124385389,0.01557,0.1644
1771240822.3485272,21.6163,51.8801,1.5554967482427449,1.2322728593943795,0.01784,0.3001
1771240822.3949895,21.6165,51.942,1.5563048613685277,1.2413136912158829,0.01607,0.3054
1771240822.443045,21.6163,52.0041,1.5570624692578567,1.2413301011415137,0.01607,-0.0689
1771240822.4927754,21.6158,52.0662,1.5579688124444688,1.2445758032357852,0.01883,0.122
1771240822.5483367,21.6153,52.1286,1.5589833700761877,1.2477565227238847,0.02156,-0.0208
1771240822.5937047,21.6121,52.213,1.5598440299342637,1.2674407007824864,0.01771,0.3905
1771240822.643324,21.6118,52.2764,1.5606798873057295,1.2751242449267444,0.01589,0.3021
1771240822.6925876,21.6116,52.3402,1.561611848971022,1.2768491218620937,0.02014,0.1046
1771240822.7519534,21.6115,52.4042,1.562622967777107,1.281954308858159,0.02123,-0.0235
1771240822.7950563,21.6092,52.518,1.5636459892537125,1.2952951516932347,0.0202,-0.0659
1771240822.8476388,21.6088,52.5829,1.5646017354877473,1.3002344788537181,0.01825,0.03
1771240822.892461,21.6081,52.648,1.5654425780501888,1.3042454101893555,0.01713,0.1793
1771240822.9458697,21.607,52.7134,1.5663543228374421,1.3116779177831728,0.02019,0.3195
1771240822.9932313,21.6059,52.779,1.5673541917875202,1.3176737873995976,0.02076,0.3244
1771240823.0436375,21.6046,52.848,1.5683682146499454,1.3159098145389752,0.01899,0.1158
1771240823.1005132,21.6038,52.9139,1.5693495489513012,1.322621132448745,0.01939,0.2587
1771240823.143044,21.6029,52.9804,1.570375982963926,1.3357281197908502,0.02015,0.3238
1771240823.1944563,21.6019,53.0471,1.5714539117382549,1.3302518633702416,0.02199,-0.0801
1771240823.2475238,21.601,53.1134,1.5725137159082894,1.3256749865634487,0.02014,0.0835
1771240823.294728,21.6003,53.1799,1.5735292157242293,1.3359139268680449,0.02175,0.3285
1771240823.342089,21.5999,53.2472,1.574552298684429,1.349201071004615,0.02188,0.0709
1771240823.393536,21.6035,53.3331,1.5755374054695375,1.359542106740354,0.02122,0.0781
1771240823.4443896,21.6039,53.4014,1.5765917003672754,1.3676462444652855,0.01961,-0.0516
1771240823.4958916,21.6047,53.47,1.5776520346506606,1.3775765133015299,0.02203,0.173
1771240823.5430553,21.6057,53.5392,1.5787066710889497,1.3891322363259735,0.01966,0.3048
1771240823.6050336,21.6044,53.6149,1.5797477321171416,1.3968108855532306,0.01985,0.1546
1771240823.6422868,21.6045,53.6849,1.5807790503803132,1.4001124311997233,0.02003,0.0212
1771240823.712888,21.6038,53.7552,1.5818309502050336,1.4054189588873491,0.02113,-0.1083
1771240823.7423987,21.6026,53.8256,1.5828949622545638,1.4113895635153322,0.02172,0.1415
1771240823.801861,21.6008,53.8963,1.5839480741095127,1.4202128079974492,0.02231,0.0143
1771240823.842613,21.594,53.9535,1.584971083803785,1.407592856617282,0.02083,-0.0529
1771240823.8959143,21.5919,54.0238,1.586054059357149,1.4098360897636293,0.02004,0.2553
1771240823.9439373,21.5893,54.0939,1.5872165232330584,1.397450371211801,0.02284,-0.117
1771240823.9941652,21.5872,54.1643,1.588484225278807,1.423202195754349,0.02794,0.6757
1771240824.0448143,21.5862,54.236,1.5894721364412603,1.4388333746476691,0.01639,0.2728
1771240824.096704,21.5855,54.3075,1.5903140776571996,1.4224425331098618,0.01517,-0.1442
1771240824.1427715,21.5846,54.3786,1.591337097401784,1.4226310554743278,0.02376,0.1211
1771240824.1926978,21.5828,54.4798,1.5924054286042373,1.444610854174923,0.02403,0.3312
1771240824.2456634,21.5814,54.5522,1.5935437104045103,1.4499047210075564,0.01993,0.1084
1771240824.2964346,21.58,54.6248,1.5944649154629922,1.4486169127826722,0.01783,-0.2827
1771240824.342039,21.5782,54.697,1.5952952207736493,1.4394227905657184,0.01785,-0.2519
1771240824.393576,21.5757,54.7687,1.5962781114902413,1.4389267702006243,0.01801,0.2125
1771240824.4424727,21.5691,54.8423,1.5972561200160218,1.451429326560546,0.01961,0.8264
1771240824.4934275,21.5652,54.915,1.5982340375265274,1.4576937161146026,0.01893,0.2512
1771240824.5436556,21.5614,54.9878,1.59920100908665,1.4617611603815448,0.01801,0.1299
1771240824.6498213,21.5575,55.0604,1.6002075600470689,1.4464897165206534,0.01938,-0.2107
1771240824.6562831,21.5533,55.1326,1.6012649406780688,1.4458561823362654,0.02395,-0.1686
1771240824.6922672,21.5467,55.2028,1.602366817266881,1.4607980592812957,0.02153,0.5379
1771240824.7420392,21.5421,55.2759,1.6033572292560783,1.4573614033588236,0.02196,-0.6818
1771240824.794824,21.5372,55.3487,1.604422639465255,1.4696991290737027,0.02789,0.9473
1771240824.8428187,21.5337,55.4231,1.6057169622763272,1.504505317371793,0.02713,0.3195
1771240824.8943484,21.5317,55.498,1.6067586851472955,1.5109168905005994,0.01471,1.2105
1771240824.9468942,21.5296,55.6187,1.6077735624741134,1.4992566491431678,0.01815,0.1401
1771240824.992373,21.5282,55.6939,1.6090093788729036,1.5105812523661215,0.02609,0.4694
1771240825.043822,21.5258,55.77,1.6104791112212065,1.5390120889713634,0.02872,1.1191
1771240825.095826,21.5229,55.8473,1.6116881568097006,1.5436015677628732,0.02127,-0.3525
1771240825.142618,21.5197,55.9242,1.6125828397713435,1.536722958115743,0.0184,-0.0277
1771240825.1915555,21.5121,56.018,1.6136151566409824,1.551411228527111,0.01834,0.2618
1771240825.2512066,21.5074,56.0957,1.6148590252198887,1.557798607009263,0.0251,0.1075
1771240825.3036084,21.5024,56.1737,1.6161670411663902,1.5697314197021093,0.02462,0.3006
1771240825.3436537,21.4969,56.2521,1.6173152061025267,1.5741901314644304,0.01948,0.2642
1771240825.3931687,21.4912,56.3305,1.61832421243445,1.5719298330396303,0.02374,-0.1842
1771240825.4463353,21.4863,56.4089,1.6194878223798364,1.5736311416593154,0.0268,0.3631
1771240825.4920766,21.4808,56.4954,1.6207299262781611,1.578916875582752,0.02368,0.1995
1771240825.5447438,21.4767,56.5743,1.6219373755176014,1.5811159413528155,0.02237,-0.0377
1771240825.5987656,21.4729,56.6533,1.6231703704117237,1.5820069816533682,0.0252,0.2241
1771240825.64655,21.4686,56.7325,1.6244007113037162,1.5901109458147882,0.02655,0.3674
1771240825.7003446,21.4641,56.8122,1.62562862751063,1.6052,0.02042,0.4747
1771240825.748239,21.4595,56.8926,1.6267817053113354,1.6175218112903453,0.01983,0.5688
1771240825.7973351,21.4544,56.9733,1.6279536865798432,1.6162522822876384,0.02395,0.1144
1771240825.8560388,21.4473,57.0661,1.6290951591816083,1.6228749797812523,0.02344,0.1701
1771240825.8986478,21.4417,57.1472,1.6302704228795228,1.625520593533038,0.02424,-0.0219
1771240825.955307,21.4361,57.2284,1.6315459362215226,1.630718179208167,0.0269,0.0224
1771240825.9938295,21.4291,57.3292,1.632701144985883,1.637403529982759,0.02379,-0.0148
1771240826.049881,21.4239,57.4111,1.633710800109644,1.6463000273340216,0.01648,0.0665
1771240826.0936844,21.4183,57.4932,1.6346409462439222,1.6447952395359124,0.01463,0.2771
1771240826.1433372,21.4125,57.5754,1.6356384067906335,1.6520937503664856,0.01549,0.8269
1771240826.192534,21.4069,57.6572,1.6369591241978978,1.6202044840081145,0.02927,-0.8127
1771240826.2437367,21.4006,57.7383,1.6384161712289973,1.6363556887180735,0.03366,0.5807
1771240826.2938406,21.395,57.8207,1.639786440170013,1.6659012005518214,0.02473,0.4901
1771240826.345063,21.3893,57.9037,1.6408005488201656,1.6694052833269697,0.01499,0.0457
1771240826.396914,21.3849,57.9946,1.6417856643661193,1.6568014606463866,0.02433,0.074
1771240826.4416986,21.3788,58.0777,1.6430004872588333,1.6727032552129502,0.02678,0.3581
1771240826.4939742,21.3724,58.1615,1.644282368326959,1.6848463698509726,0.02413,-0.1313
1771240826.542967,21.3651,58.2481,1.6454169220928252,1.6898068203200032,0.02511,-0.2422
1771240826.5918674,21.3575,58.3322,1.6465743267425685,1.69159517911349,0.02405,0.4546
1771240826.6441453,21.3498,58.4167,1.6478046120158667,1.7053069665019258,0.023,0.4994
1771240826.692025,21.3425,58.5019,1.6489383198610974,1.713713097341559,0.02373,0.0292
1771240826.743951,21.3354,58.5871,1.6500831939768763,1.711320127854517,0.02456,0.0553
1771240826.794199,21.3283,58.6726,1.6513349286905867,1.7204006539175691,0.02483,0.4134
1771240826.8418365,21.3172,58.7667,1.652674081764439,1.735051745626049,0.02323,0.5136
1771240826.894947,21.3108,58.8533,1.6539358854297512,1.731164986360341,0.0233,-0.2077
1771240826.9454958,21.3043,58.9393,1.6552546234562864,1.7269826924436738,0.02555,0.7106
1771240826.996549,21.2979,59.0258,1.6565611532127658,1.7378174041020535,0.02626,0.0425
1771240827.0424943,21.2911,59.1127,1.6578037227181532,1.7476866195059113,0.02468,0.1152
1771240827.0934262,21.2844,59.2,1.6591113858407838,1.7488076080575587,0.02407,-0.236
1771240827.1443024,21.2772,59.2727,1.6601976484513787,1.748946111233848,0.02098,0.2914
1771240827.1934228,21.2701,59.36,1.6613695061740414,1.7519854166059716,0.02468,0.057
1771240827.243236,21.2628,59.4472,1.6625502295330077,1.7460025773176853,0.02542,-0.2961
1771240827.302437,21.2551,59.5342,1.6638545338546178,1.7588382529385695,0.02617,0.5132
1771240827.3421917,21.2477,59.6224,1.6650750765150595,1.7723777390838555,0.02238,-0.0891
1771240827.3924878,21.2404,59.7103,1.6660206249072949,1.7514668281186487,0.0176,-0.1238
1771240827.4450097,21.2292,59.7969,1.6667493999054714,1.7639408181682288,0.01294,0.0985
1771240827.4981554,21.2213,59.8853,1.667263737208096,1.7809397575437524,0.01043,0.2618
1771240827.5456038,21.2136,59.9743,1.6677181318167238,1.7932679665906042,0.00805,0.2198
1771240827.594257,21.2024,60.0587,1.668150589090184,1.773597795442924,0.00795,-0.3247
1771240827.64608,21.1953,60.1475,1.6685680989524325,1.794110991549854,0.00847,0.7694
1771240827.695265,21.1883,60.2371,1.668961990355574,1.8015615948393215,0.00411,0.307
1771240827.7446742,21.1807,60.3266,1.6692217657488815,1.7947741250642097,0.00464,0.1016
1771240827.7956655,21.1699,60.4164,1.6694967822122164,1.7975536181154654,-0.00012,0.7642
1771240827.8421898,21.162,60.5064,1.669768057829746,1.8006476529293565,0.00746,-0.3587
1771240827.8983068,21.1538,60.5959,1.6702088744595318,1.7969300960248842,0.00876,-0.0459
1771240827.942283,21.1456,60.6856,1.6707162992821056,1.8021801824456956,0.00759,0.2828
1771240828.006621,21.1385,60.7739,1.671001957761008,1.813950936491944,0.00819,0.6185
1771240828.0475757,21.1309,60.8651,1.6712275127470246,1.823525697652764,0.00702,-0.8055
1771240828.1032565,21.1239,60.9558,1.6714598204213733,1.819713933562086,0.00439,0.1864
1771240828.1426997,21.1162,61.0466,1.6716869088306445,1.8258319117596777,0.00891,0.0082
1771240828.2003891,21.1005,61.1346,1.6721211954160837,1.8364701712796754,0.0065,0.7082
1771240828.2445123,21.0926,61.2258,1.6725660959809168,1.8235244034561204,0.00738,-0.2273
1771240828.2918386,21.0842,61.3165,1.6729502302049346,1.8237428382313117,0.00655,0.5901
1771240828.348394,21.0759,61.4077,1.6733562211676847,1.8455185314702207,0.00361,0.7237
1771240828.3951614,21.0605,61.5068,1.6737206310983217,1.8582202937219259,0.00512,0.2683
1771240828.4421606,21.0528,61.6,1.673897477669394,1.8672355957403983,0.00811,-0.4664
1771240828.499931,21.0453,61.6927,1.6742931989916574,1.8563191670615264,0.00602,-0.5329
1771240828.54346,21.038,61.7852,1.674808543682893,1.8637846281155985,0.00797,0.7359
1771240828.5968535,21.0301,61.8781,1.6749757176317894,1.8642527966989886,0.00306,0.0109
1771240828.6429815,21.0189,61.9745,1.6750337277027652,1.8653868231549187,-0.00198,0.3833
1771240828.696573,21.0103,62.0675,1.675100151342735,1.8696066966076048,0.00255,0.2545
1771240828.7436876,21.0023,62.1607,1.6752287433453155,1.8712010528000458,0.00413,-0.1151
1771240828.791988,20.997,62.2629,1.6750645926305627,1.8723531103934428,-0.00143,0.2876
1771240828.843299,20.9904,62.3563,1.6749052338666088,1.8759320350161945,-0.0055,-0.0235
1771240828.892389,20.9837,62.4499,1.6745531193925673,1.8718269204175904,-0.00235,-0.2216
1771240828.9459815,20.9742,62.5456,1.6742964589661598,1.8734477574781743,-0.00391,0.5671
1771240828.9964683,20.9665,62.6387,1.6743070153386592,1.8710311408418623,0.00082,0.5213
1771240829.0453813,20.9581,62.7322,1.674222050578851,1.8833593629469656,-0.00145,0.49
1771240829.100756,20.9452,62.8488,1.6739958047950134,1.8824713676441405,-0.00874,-0.4441
1771240829.147004,20.9368,62.9422,1.6736998589734415,1.8797490816595708,-0.00561,0.6742
1771240829.193252,20.9288,63.0361,1.6734826883342868,1.8861629409995309,-0.00096,-0.2011
1771240829.2509084,20.9209,63.13,1.6732926407854776,1.8789776422299442,-0.00134,-0.2858
1771240829.298973,20.9131,63.2236,1.6732939464807726,1.8848076824970765,0.00104,0.3741
1771240829.342626,20.9008,63.3204,1.6733314526722667,1.8911724458652628,0.00243,0.348
1771240829.394836,20.8925,63.4144,1.6734824807164992,1.8931928850489588,0.00245,0.4122
1771240829.4426634,20.8847,63.5092,1.6732589807789062,1.8987176830692865,-0.00213,-0.5387
1771240829.4920926,20.8774,63.6037,1.6729205311790132,1.8904490048663043,-0.0033,-0.2834
1771240829.5439188,20.8645,63.6805,1.673000140906904,1.8755185442964832,0.00321,-0.1584
1771240829.593083,20.8572,63.7743,1.6731166798155763,1.886240400903342,0.00251,0.0128
1771240829.6472435,20.85,63.8684,1.6730671010067586,1.8846230524961747,-0.00198,-0.1225
1771240829.693493,20.8429,63.9622,1.6729514699853945,1.8806229180779437,-0.00395,-0.1314
1771240829.745383,20.8279,64.0473,1.67290801352514,1.8816472065719438,-0.00233,0.4003
1771240829.7957742,20.8201,64.1414,1.672808347655806,1.8965858298532126,-0.0028,0.0858
1771240829.8460565,20.8131,64.2359,1.672538048022433,1.8921348075652538,-0.00805,-0.1545
1771240829.8989663,20.8064,64.3091,1.6721465586337239,1.8788814757722214,-0.00485,-0.0369
1771240829.9510765,20.7992,64.4025,1.6719705228844965,1.8761797621763219,-0.00477,0.3078
1771240829.992127,20.7919,64.4959,1.6719104977779853,1.8646552174597855,-0.0008,-0.5022
1771240830.0502396,20.7843,64.589,1.6717653819989315,1.8742072057272643,-0.00163,0.4505
1771240830.0959065,20.7767,64.6827,1.67149089399269,1.8915124794724458,-0.00609,0.4859
1771240830.154741,20.7614,64.776,1.671269724439952,1.8912612987104664,-0.00507,-0.5611
1771240830.191904,20.7531,64.8699,1.6710192704199711,1.8808739378278385,-0.00792,0.0311
1771240830.2618773,20.7449,64.9633,1.670697262075447,1.8747423209604035,-0.0088,0.3844
1771240830.2939756,20.7367,65.0568,1.6704460139339599,1.876235083884746,-0.00432,-0.13
1771240830.3603704,20.7289,65.1502,1.6703303493806934,1.8707421682316354,-0.00036,0.1126
1771240830.3975754,20.7057,65.2897,1.6702246546231019,1.8918563370404213,-0.00135,-0.1772
1771240830.4426343,20.6975,65.3841,1.6700185994895733,1.9011833052075753,-0.00572,0.1022
1771240830.4926412,20.6895,65.479,1.6697527976525062,1.9076684093416236,-0.00467,0.1018
1771240830.5441382,20.6817,65.5741,1.6693708475970925,1.9039872688649995,-0.00272,-0.3032
1771240830.5921514,20.6741,65.6687,1.6691277449777966,1.8954634261836867,-0.00402,0.0629
1771240830.643432,20.6599,65.7773,1.6690667752891182,1.9001762470886745,-0.00016,-0.0817
1771240830.6962304,20.6524,65.872,1.668902903253369,1.9008830053425172,-0.00588,-0.0087
1771240830.7436528,20.6439,65.9671,1.6684910303188611,1.9103001282521028,-0.00359,-0.1538
1771240830.7926073,20.6377,66.0655,1.667851883741591,1.9117415228006112,-0.01406,-0.0011
1771240830.8427255,20.6299,66.1605,1.6670509949168524,1.9062928683704399,-0.01854,0.1647
1771240830.90323,20.6228,66.2556,1.6660268148261088,1.9072099255194748,-0.01908,0.0384
1771240830.9517348,20.616,66.3509,1.665101265840536,1.9147296467125587,-0.01603,0.2447
1771240830.9929886,20.6077,66.4474,1.6643783388577467,1.911420508417758,-0.01521,-0.4115
1771240831.043188,20.6017,66.5425,1.6635174516897075,1.9046205002572034,-0.01935,0.0448
1771240831.091997,20.5957,66.6375,1.6625992709273663,1.9054105751779589,-0.02029,0.4006
1771240831.142293,20.5907,66.709,1.6616491610415913,1.904136111206339,-0.01846,0.1335
1771240831.1985357,20.5849,66.8044,1.6607050530298382,1.907439251981567,-0.01611,-0.3966
1771240831.2442608,20.5791,66.8993,1.6598888343490674,1.8925797684641987,-0.01412,-0.47
1771240831.2922292,20.5738,66.9938,1.6590270843516655,1.8939151010538988,-0.01893,-0.0522
1771240831.3429482,20.5689,67.0917,1.6581262588659489,1.902251184780811,-0.02017,0.1578
1771240831.3939142,20.5634,67.1867,1.6572298627310562,1.9014276872918412,-0.01589,-0.1864
1771240831.4419267,20.5576,67.2813,1.6562515750124367,1.8903512107542344,-0.01884,-0.0687
1771240831.4922633,20.5636,67.3486,1.6551863241673332,1.8759065488451176,-0.01708,0.3563
1771240831.5435383,20.5584,67.4425,1.6542520502963582,1.8897622945756962,-0.01733,0.2531
1771240831.5936291,20.5535,67.5369,1.6532661322188782,1.8861658384140034,-0.01707,-0.3222
1771240831.6484652,20.5496,67.6309,1.6523387164690229,1.8819389283395993,-0.02028,-0.0115
1771240831.6954422,20.5467,67.725,1.6513457281749218,1.880716512396273,-0.02151,-0.0128
1771240831.7468104,20.5431,67.8186,1.650368237085724,1.8646531044674233,-0.01805,-0.4035
1771240831.7927446,20.538,67.9129,1.6494202429761684,1.8807765417507736,-0.01897,0.5193
1771240831.8439777,20.5336,68.0072,1.6485507818217797,1.8917078527087634,-0.0194,0.108
1771240831.895823,20.5292,68.1017,1.6474601477105273,1.8819694604323418,-0.02114,-0.3682
1771240831.941606,20.5245,68.1952,1.6463876485969453,1.8687140016599653,-0.0158,0.3162
1771240831.9964435,20.5266,68.2704,1.6455534761619424,1.8822445988765648,-0.01471,0.2715
1771240832.0488684,20.5228,68.3646,1.6448169380616464,1.887291191099031,-0.01618,0.0087
1771240832.099607,20.5195,68.4585,1.6438824599113482,1.8764057263822236,-0.01844,0.0954
1771240832.1427712,20.5187,68.5408,1.6429256892862654,1.872244345698499,-0.01954,0.3423
1771240832.199163,20.5156,68.6345,1.642083441472244,1.8795890641307744,-0.01587,0.3266
1771240832.242799,20.5127,68.7284,1.6413194106240208,1.8727136914114768,-0.01701,-0.3145
1771240832.306178,20.5103,68.8217,1.6403714550708062,1.8602749286059843,-0.02031,-0.3936
1771240832.342797,20.5018,68.8964,1.6394468548726928,1.857155373144638,-0.01915,0.4547
1771240832.3923428,20.4999,68.9897,1.6384083054413776,1.868122570925152,-0.02316,-0.1058
1771240832.445296,20.4973,69.083,1.6374684300701827,1.860414061439012,-0.0158,-0.1708
1771240832.4926877,20.4944,69.1758,1.6366989535268022,1.8501926926674421,-0.01431,-0.0303
1771240832.543883,20.4866,69.2503,1.6358298546041694,1.849397320750736,-0.02048,0.2566
1771240832.592713,20.4836,69.3426,1.6347922604596608,1.8433907724625294,-0.02221,-0.1221
1771240832.647407,20.4806,69.4345,1.6337130915819313,1.8369647356441006,-0.02045,0.0568
1771240832.6928463,20.4777,69.5263,1.6326979616921296,1.8377193284068163,-0.0197,0.1878
1771240832.7473445,20.4842,69.5746,1.6316698209931193,1.8160452252077866,-0.02117,-0.1066
1771240832.8011034,20.4823,69.6653,1.6306937554195593,1.8025981942740317,-0.01678,-0.4807
1771240832.8419092,20.4806,69.7553,1.6297683126943332,1.8035375044617177,-0.01644,0.1326
1771240832.8957794,20.4786,69.8456,1.628952808984781,1.8087356716778713,-0.01649,-0.1012
1771240832.9458883,20.4736,69.9089,1.6281153123451824,1.7948675828595266,-0.01429,-0.2109
1771240832.9921794,20.4715,69.9984,1.6272440030193704,1.788979776297094,-0.01886,0.0599
1771240833.041822,20.4696,70.0878,1.62633077025435,1.7869447697117,-0.02076,0.0326
1771240833.0919473,20.4679,70.1773,1.625354008956548,1.7880632203588327,-0.01981,-0.3055
1771240833.144712,20.4665,70.2666,1.6243546170898968,1.7778201540088354,-0.02127,-0.3932
1771240833.1944025,20.456,70.304,1.6235048761380921,1.7584757632677228,-0.01594,0.1321
1771240833.243814,20.4548,70.392,1.6226178238754467,1.7637307079029951,-0.01797,-0.1269
1771240833.294808,20.4539,70.4803,1.6216468673369409,1.762405083969063,-0.01993,-0.1526
1771240833.3423986,20.4535,70.5681,1.6206898161193652,1.7553744500818051,-0.0173,0.0154
1771240833.3961518,20.453,70.6561,1.619745540675591,1.7631140774209706,-0.01668,0.0068
1771240833.4432342,20.4521,70.7444,1.6188972895339162,1.7650269346386758,-0.01731,-0.0098
1771240833.498927,20.451,70.8324,1.6180322963851779,1.7560835771682395,-0.01674,-0.1054
1771240833.5435998,20.4371,70.9627,1.6170816716332455,1.7785265024733257,-0.01764,0.2018
1771240833.5932148,20.436,71.0517,1.616160959348822,1.7819034569807648,-0.0202,-0.1452
1771240833.645852,20.4349,71.1408,1.6151389489353285,1.7767757905824808,-0.01775,-0.4433
1771240833.6931295,20.4334,71.2294,1.6142534334812917,1.7697592209111384,-0.01717,0.1388
1771240833.7418702,20.4192,71.3622,1.6134951321359707,1.79290142506497,-0.01291,0.0531
1771240833.7948782,20.4177,71.4517,1.6127936037445185,1.7932952378233762,-0.01371,0.1102
1771240833.8428075,20.4171,71.5413,1.6120800252434955,1.7910536117045743,-0.01543,0.2568
1771240833.897544,20.4166,71.6308,1.611409086937085,1.7896793930757542,-0.01185,0.1118
1771240833.944315,20.4158,71.7201,1.6109647052063405,1.7832016655443097,-0.00713,0.0092
1771240833.991839,20.4146,71.8094,1.61060080064851,1.7872795528400138,-0.00563,0.1056
1771240834.0450518,20.3947,71.8957,1.6102827819560561,1.7778593110817291,-0.0066,-0.1164
1771240834.09354,20.3923,71.9844,1.60997772552817,1.7717952054343076,-0.00729,-0.0251
1771240834.1451848,20.3899,72.0728,1.6096659551839503,1.7706442358644494,-0.00523,0.1293
1771240834.19629,20.3876,72.161,1.6096638141006165,1.7554265236688205,0.0012,0.0631
1771240834.2471015,20.3857,72.2485,1.6097485115652266,1.7471367233276278,0.0039,-0.3061
1771240834.2919557,20.3842,72.3358,1.6099334753221293,1.743571690524941,0.00506,-0.0527
1771240834.3520803,20.3638,72.4431,1.6102365879422051,1.7408941639284106,0.00705,0.0176
1771240834.3924923,20.3616,72.5298,1.6107096456108663,1.7312449191261186,0.01081,0.1172
1771240834.4524832,20.3592,72.6163,1.6112908071004783,1.7284227636779144,0.01144,-0.0749
1771240834.4943151,20.3568,72.7026,1.6119065224622615,1.721017379342812,0.01185,-0.3676
1771240834.5424008,20.3541,72.7883,1.61257801649893,1.7046741536141152,0.01517,-0.4851
1771240834.5962625,20.3363,72.8827,1.6133156879549544,1.710915149854019,0.01522,0.0044
1771240834.6436348,20.3327,72.9681,1.6139931759184452,1.7105101753570482,0.01276,0.1042
1771240834.69318,20.3285,73.0534,1.61472885552688,1.7098360301502598,0.01528,0.4835
1771240834.7461867,20.3243,73.1386,1.6154912543594042,1.698616119080471,0.01513,-0.2997
1771240834.796554,20.3088,73.255,1.6162853933077097,1.709546433999381,0.01378,-0.0322
1771240834.843841,20.3045,73.3404,1.6169651838907049,1.7051005747462524,0.01383,-0.3277
1771240834.8929577,20.3007,73.4255,1.6176188780435787,1.6998023061521006,0.01423,-0.2669
1771240834.9424622,20.2967,73.5104,1.6182646902221882,1.702416964201191,0.01326,0.2329
1771240834.9938538,20.2899,73.6028,1.6189557582436134,1.710131018372569,0.01191,0.141
1771240835.0417235,20.2863,73.688,1.6195832569260338,1.7085632385135763,0.00852,0.4117
1771240835.1031358,20.2828,73.7736,1.6203008580563485,1.7117572257770668,0.01525,0.0547
1771240835.1444995,20.2795,73.859,1.6209447833253197,1.699133511528744,0.01491,-0.334
1771240835.1959136,20.276,73.9435,1.6215224700676092,1.687775841159009,0.00987,-0.0381
1771240835.2431808,20.2724,74.1263,1.6220428899770227,1.7359329768167895,0.01094,0.3024
1771240835.2929645,20.2682,74.2131,1.6226557126475283,1.7398037245620552,0.01221,0.036
1771240835.3467548,20.2639,74.2998,1.6233479845707373,1.730304172681786,0.01315,-0.208
1771240835.3931272,20.2597,74.386,1.6240117251744364,1.727206950541828,0.01075,0.3595
1771240835.4427953,20.2554,74.4724,1.6247003033823697,1.7356394354819207,0.01429,0.3418
1771240835.4920983,20.2517,74.5593,1.6253589137241278,1.7386143476918623,0.0127,-0.0596
1771240835.541703,20.2484,74.646,1.625994430646642,1.7305185176703541,0.01251,0.0733
1771240835.5922256,20.2444,74.7507,1.626836440336724,1.7338159821618904,0.01565,0.0662
1771240835.643271,20.2413,74.8376,1.6276054286144357,1.7410851702314851,0.01505,0.1154
1771240835.6994786,21.5393,75.9332,1.6029342443738501,1.7373233118795133,0.0123,-0.0255
1771240835.742743,21.536,76.0198,1.6036040486045675,1.7302180353932275,0.01304,0.1545
1771240835.7941842,21.5327,76.1063,1.604223487931017,1.7313318399428805,0.0122,0.2143
1771240835.8427975,21.529,76.193,1.604815322542537,1.7384736293657146,0.01118,0.1271
1771240835.8961458,21.5803,76.3145,1.6024720517099251,1.83084088331018,0.0116,0.0845
1771240835.9420426,21.5795,76.4058,1.6030101865174966,1.8208841286583832,0.00948,0.0461
1771240835.9944382,21.5784,76.4968,1.6034549586553817,1.8160548725189998,0.0103,-0.2717
1771240836.0414257,21.5775,76.5877,1.6038851125077584,1.8215608801245156,0.00633,-0.0622
1771240836.0960765,21.5768,76.6789,1.6042545020889132,1.8210364878277425,0.00632,0.0239
1771240836.1419375,21.5761,76.7699,1.6045389619209844,1.8208513750441029,0.00642,0.0701
1771240836.1957147,21.5732,76.8413,1.6045433023197604,1.808805539575772,0.00331,0.5323
1771240836.2418375,21.5723,76.9318,1.604747824358393,1.814989509611557,0.00237,0.3655
1771240836.3011012,21.5714,77.0223,1.6049170207860195,1.803735684627878,0.00276,-0.3424
1771240836.3453555,21.5712,77.1123,1.6049059968711228,1.7924145530540638,-0.00091,-0.328
1771240836.397737,21.5715,77.2021,1.604712990796568,1.8043479985856388,-0.00511,0.4347
1771240836.4428003,21.5726,77.2924,1.6044393653451323,1.8062963876396365,-0.00548,-0.0976
1771240836.5007284,21.5436,77.3472,1.6043364321100053,1.7663733014286647,-0.00333,0.1779
1771240836.5427449,21.5427,77.4355,1.6042961439267602,1.7661829406944232,-0.00199,0.1721
1771240836.6017995,21.5418,77.524,1.6041679192269802,1.772776494654642,-0.00537,0.2396
1771240836.645767,21.5408,77.6125,1.6038618384529084,1.7681584205042262,-0.0069,0.0503
1771240836.6925926,21.5396,77.7008,1.6035675430804508,1.7620417077924122,-0.0056,-0.1059
1771240836.7450013,21.5251,77.7572,1.603342663487778,1.7309162486960485,-0.0022,0.1325
1771240836.7941065,21.5229,77.8437,1.6032480487777425,1.7350794102864573,-0.00373,0.5143
1771240836.8475983,21.5211,77.9305,1.60311171614931,1.7340074105954681,-0.00268,0.1452
1771240836.8920894,21.5192,78.017,1.6027119189615635,1.7271668853935338,-0.00757,-0.1514
1771240836.9426253,21.5174,78.1033,1.602339386992913,1.7256769830996763,-0.00683,-0.1207
1771240836.9925904,21.5092,78.1822,1.602016464691035,1.7222015271158018,-0.00666,-0.0526
1771240837.0424323,21.5075,78.2681,1.6015784589339892,1.716456795261681,-0.01022,0.1974
1771240837.093949,21.5063,78.3537,1.6010462176255424,1.7084311077711034,-0.01,-0.2039
1771240837.1421478,21.5051,78.4389,1.6004391676908767,1.7064905332289422,-0.01165,0.3753
1771240837.1924324,21.504,78.5241,1.5998634167541912,1.7028749572414292,-0.01278,0.1489
1771240837.2430935,21.5032,78.6091,1.5992429004290623,1.6955191830233005,-0.00988,-0.3903
1771240837.2958052,21.5054,78.6958,1.5985673254841508,1.702379023601971,-0.01621,0.4523
1771240837.3509233,21.5058,78.7811,1.5977852099475809,1.7040818055480789,-0.0162,-0.2591
1771240837.3921614,21.5058,78.8663,1.597173562734319,1.7045883520662695,-0.00892,0.2042
1771240837.4420795,21.5056,78.9514,1.5966951728073189,1.6993361762759012,-0.01121,0.1688
1771240837.4918342,21.5051,79.0363,1.5960672073396047,1.7008086341502384,-0.01403,0.0455
1771240837.542951,21.5045,79.1214,1.5953036987597635,1.7020878150083796,-0.01348,0.0403
1771240837.5947156,21.47,79.2171,1.594933197765371,1.7082258632862342,-0.01455,0.3861
1771240837.6423123,21.4689,79.3025,1.5943817370501863,1.708249504609909,-0.01075,0.2013
1771240837.691765,21.4682,79.3878,1.5938013660281825,1.7023198876826882,-0.01065,-0.2881
1771240837.741567,21.468,79.4728,1.5931323509876403,1.6961114025912332,-0.01211,-0.2562
1771240837.795964,21.4636,79.5567,1.5926925857427288,1.694400997402917,-0.01629,0.4513
1771240837.841782,21.4625,79.6414,1.5920000857755765,1.6937418044082162,-0.01323,-0.0535
1771240837.8927486,21.4614,79.7258,1.5913656788916273,1.6866918272168157,-0.01368,0.232
1771240837.9427989,21.4607,79.8103,1.590598554060893,1.6912291447346808,-0.0162,0.399
1771240837.9932525,21.46,79.895,1.5897463049466596,1.6956802794159045,-0.01429,-0.0469
1771240838.0436192,21.4592,79.9796,1.589009917961103,1.689150798478336,-0.01532,0.1268
1771240838.092846,21.4649,80.0656,1.5886883069429378,1.6895613661539495,-0.01368,0.0973
1771240838.1414244,21.4642,80.1501,1.5880613841758866,1.6951480053375871,-0.01184,0.351
1771240838.1942446,21.4639,80.2348,1.587285813736222,1.6954506333125716,-0.01792,0.3586
1771240838.2461162,21.4636,80.3193,1.586468252010951,1.6824188806596292,-0.01643,-0.2317
1771240838.2951834,21.4633,80.4033,1.5857538282475907,1.682447794138053,-0.00988,0.0419
1771240838.343087,21.4631,80.4876,1.585208194505352,1.6904113256837816,-0.01013,0.4322
1771240838.3922565,21.4707,80.5747,1.5849679578921714,1.6949726398971756,-0.01063,-0.0734
1771240838.44891,21.4713,80.6597,1.584159528249059,1.70824120076762,-0.01611,0.4495
1771240838.496625,21.4721,80.7447,1.5833333765315258,1.6956462632282714,-0.0155,0.0572
1771240838.548122,21.4729,80.8294,1.582691682163769,1.6930948024254282,-0.01123,0.1586
1771240838.5925405,21.4812,80.9158,1.5824159402707831,1.6911631500242665,-0.01393,-0.162
1771240838.6620789,21.4828,81.0004,1.5816464698436365,1.6906211077589206,-0.01645,0.1091
1771240838.6993194,21.4847,81.0844,1.5808191558511095,1.675886407248415,-0.01773,0.1045
1771240838.7532094,21.4863,81.1681,1.5799589519071056,1.680848871850173,-0.01824,0.3993
1771240838.791925,21.4878,81.2523,1.5792011217719937,1.683854438483327,-0.01578,0.1834
1771240838.84306,21.4898,81.3362,1.5785049393514625,1.6713181773677925,-0.01242,-0.0603
1771240838.894439,21.4944,81.421,1.578033680586947,1.6698246913972739,-0.01672,0.1685
1771240838.946745,21.4971,81.5047,1.5771686755707162,1.676975184670304,-0.01617,0.1917
1771240838.9959948,21.4997,81.5884,1.5764361189477203,1.6728057986508773,-0.01271,0.0042
1771240839.0419674,21.502,81.6719,1.5757578185124852,1.6719370861369158,-0.01502,0.0816
1771240839.0927231,21.5044,81.7553,1.5750067358566235,1.6625085443389458,-0.01527,0.0016
1771240839.1423898,21.5069,81.8384,1.574136796428201,1.6633930683996494,-0.01718,-0.0614
1771240839.1941066,21.5106,81.9234,1.5736046036733908,1.6588003496503128,-0.01775,0.0104
1771240839.2454047,21.5135,82.0063,1.5729048908199554,1.654459488775715,-0.01324,-0.2725
1771240839.298561,21.5164,82.0889,1.5722030203721935,1.6514866545025426,-0.0127,-0.068
1771240839.342079,21.5193,82.1715,1.571526574008729,1.6544480197334699,-0.01398,0.1138
1771240839.3923635,21.5221,82.2542,1.5708821091632699,1.6525533274300106,-0.01184,-0.2077
1771240839.4539564,21.5227,82.3417,1.570286033126288,1.6506579173166074,-0.01303,-0.2274
1771240839.4919844,21.5252,82.4243,1.5695259000965103,1.654520504557136,-0.01471,0.0464
1771240839.5414286,21.528,82.507,1.568790739013687,1.6564427699138897,-0.01548,0.1837
1771240839.5921547,21.5305,82.5897,1.568101686297489,1.6533262049577513,-0.01134,-0.0425
1771240839.6474378,21.5332,82.6721,1.567588492426724,1.6462503880029915,-0.01062,-0.0852
1771240839.6917336,21.5315,82.7632,1.567162247219252,1.6545070867179748,-0.01057,-0.0502
1771240839.744669,21.5335,82.8458,1.5667513296159938,1.6500441751662287,-0.00707,-0.1642
1771240839.7953374,21.5357,82.9279,1.5664496033707789,1.6381697103780182,-0.00778,-0.2164
1771240839.8435812,21.5385,83.01,1.5660889188595357,1.6435451256354359,-0.00688,0.0415
1771240839.8915825,21.5415,83.0922,1.5659096121709526,1.6423982464676465,-0.00183,-0.2665
1771240839.941919,21.5443,83.1741,1.5660645581343007,1.6337348254842339,0.00457,-0.121
1771240839.9931138,21.5444,83.2645,1.566495153521305,1.643764192334168,0.00727,0.1144
1771240840.042364,21.5467,83.3468,1.5668065968015872,1.6438677349470667,0.00283,0.0673
1771240840.0951376,21.5489,83.4289,1.5669049739543455,1.6400892292799192,0.00203,0.153
1771240840.1438854,21.5505,83.5107,1.5670637499725821,1.6303378422891375,0.00364,-0.2021
1771240840.19215,21.5517,83.5923,1.5675380076056953,1.6332274091503607,0.01055,-0.0849
1771240840.2425375,21.5455,83.6804,1.5682503150053906,1.6371343164200058,0.0128,-0.2062
1771240840.2942529,21.5462,83.7624,1.5687344447355338,1.6385136709835533,0.00985,0.0331
1771240840.3460968,21.5474,83.8443,1.5691612362562941,1.6410255634815687,0.00932,0.2976
1771240840.391842,21.5482,83.9263,1.569635091086981,1.640070437511755,0.01,0.3476
1771240840.4451609,21.5492,84.0083,1.5702384313472717,1.6397781221860472,0.01312,0.078
1771240840.4953306,21.5507,84.0901,1.5708758305973856,1.6323970105338956,0.01249,0.0415
1771240840.5561156,21.5525,84.1714,1.5714186241628647,1.6266943320734846,0.01168,0.2801
1771240840.5964472,21.5461,84.2468,1.5719987722419857,1.6235177855508698,0.01088,0.1258
1771240840.6428711,21.5479,84.3281,1.5724924635717967,1.626599253042986,0.00998,-0.0425
1771240840.7018,21.5489,84.4093,1.572999920458637,1.6210283680429531,0.00999,-0.134
1771240840.743519,21.5499,84.4902,1.573485003642545,1.618566279149544,0.0077,0.4074
1771240840.800882,21.5398,84.5616,1.573992039505495,1.6137431425106041,0.00713,0.2783
1771240840.8415732,21.5402,84.6425,1.5744603787262326,1.6161668540098204,0.00787,0.0551
1771240840.9027767,21.5408,84.7231,1.574947821074018,1.6083746889328991,0.00652,0.0485
1771240840.9424896,21.5411,84.8035,1.5754606890285,1.6040543132949086,0.01307,-0.3473
1771240840.9935148,21.5415,84.8838,1.5759882684175288,1.604646733708077,0.01293,-0.0927
1771240841.0455124,21.5542,85.0225,1.5756107808561446,1.6045160796950588,0.00687,0.2106
1771240841.1714678,21.5546,85.1026,1.5759694495165018,1.605869126049816,0.00495,0.445
1771240841.1718285,21.5552,85.1828,1.5764558130708608,1.6023767596916776,0.01059,0.1842
1771240841.1956644,21.5556,85.2628,1.5769969599861258,1.5936906726212585,0.01219,-0.1926
1771240841.2443607,21.5557,85.3426,1.5775383820974576,1.5992561395849008,0.01287,0.2729
1771240841.2928762,21.5559,85.4225,1.5781343303080586,1.5990639418109582,0.01122,0.1832
1771240841.3422792,21.5874,85.5779,1.5787169279618463,1.6482294288114139,0.01172,0.0824
1771240841.394842,21.5881,85.6602,1.5792537995177334,1.6443118469438818,0.00929,0.1351
1771240841.4442868,21.5894,85.7422,1.5797544248166482,1.6358678736377212,0.0087,-0.0625
1771240841.4961288,21.5906,85.8241,1.5802004896623592,1.633517128774596,0.00954,-0.1554
1771240841.5426495,21.5922,85.9058,1.5806858435076825,1.6319233131492423,0.00885,0.0612
1771240841.5930862,21.5794,85.9871,1.5812007715764658,1.6177047691096171,0.00716,-0.2128
1771240841.6435106,21.5801,86.0679,1.5816413255936566,1.6182931162184435,0.01038,0.1845
1771240841.7010524,21.5803,86.1487,1.5821398240588864,1.6125716387187268,0.01031,0.0019
1771240841.742637,21.5802,86.2292,1.5826658961089692,1.6075425779742194,0.00849,-0.0739
1771240841.7924852,21.5798,86.3094,1.583082502562154,1.5997034037595843,0.00734,0.1842
1771240841.843503,21.5676,86.3832,1.583505561238908,1.5928066423769083,0.00801,-0.101
1771240841.8962882,21.5663,86.4631,1.584077826787247,1.6024016506481764,0.01307,0.2339
1771240841.9472415,21.5655,86.5434,1.5846798145128487,1.6078425700297898,0.0102,-0.0422
1771240841.9916282,21.5653,86.6236,1.585160551689567,1.600924336125852,0.00866,-0.0921
1771240842.0438063,21.5654,86.7035,1.5855467658872862,1.5953865989157612,0.01037,0.1081
1771240842.0931673,21.5652,86.7832,1.5860632199516793,1.5953119600880574,0.00952,0.2542
1771240842.1427565,21.5776,86.8785,1.586600492304625,1.6124790975389418,0.01003,0.0966
1771240842.1928253,21.5777,86.9589,1.5870630088777025,1.6040677822336562,0.00829,0.1192
1771240842.2416117,21.5776,87.0392,1.5873890961485606,1.6021077523063172,0.0076,-0.2545
1771240842.29662,21.5775,87.1195,1.5876915038527475,1.6064883597461888,0.00643,-0.1774
1771240842.3438606,21.5771,87.1998,1.588077420007809,1.6080566687775653,0.0078,0.2129
1771240842.3917725,21.5764,87.28,1.588543742244685,1.603963746473093,0.00827,0.1047
1771240842.444891,21.5656,87.3642,1.589016334892517,1.6034157196435364,0.00719,0.0399
1771240842.4936078,21.5645,87.4443,1.5894176192282348,1.5973761767348353,0.0072,-0.1641
1771240842.546461,21.564,87.5242,1.5897257765391064,1.5928464615272873,0.00674,-0.1114
1771240842.5932257,21.5634,87.6038,1.5900217773901502,1.5928641906954903,0.00602,0.1446
1771240842.643801,21.5625,87.6835,1.5904228283737665,1.5933597616357706,0.00827,0.0254
1771240842.7008624,21.5474,87.7619,1.5907494071066837,1.591000153991193,0.00876,-0.1067
1771240842.7481964,21.5458,87.8412,1.5910518332081356,1.5789043352907737,0.00441,-0.2871
1771240842.7965195,21.5447,87.9202,1.5911780070216583,1.5790936767652513,0.00072,0.2001
1771240842.8607907,21.5441,87.9992,1.5912198649001865,1.5840713683417174,0.00241,0.4294
1771240842.8999083,21.5436,88.0784,1.5913071671047927,1.5875875156979535,0.0042,0.2109
1771240842.9518943,21.5432,88.1578,1.591544477259446,1.5872953159384047,0.00516,-0.092
1771240843.0060377,21.5371,88.2252,1.5918053720719443,1.5792228785070206,0.00474,0.6392
1771240843.0554368,21.5364,88.3038,1.5918871663842824,1.5665068943352913,0.00103,-0.2112
1771240843.0949762,21.5355,88.382,1.5918756034002852,1.5668786583523306,0.00038,0.0297
1771240843.1545985,21.5343,88.4604,1.5919411604096967,1.566006181341568,0.00102,-0.0178
1771240843.1952052,21.5326,88.5386,1.5921335012517712,1.5584048799974928,0.00527,-0.2115
1771240843.2514355,21.5303,88.6165,1.5922899731841393,1.5668816930451386,0.00471,-0.1594
1771240843.2949276,21.5278,88.6946,1.5925555906591133,1.550767790483153,0.00494,-0.5847
1771240843.3426318,21.5258,88.7714,1.5927633302586004,1.5294078494633145,0.00101,0.0396
1771240843.393568,21.5242,88.8477,1.592875074388935,1.524208532320955,0.00222,0.431
1771240843.4478862,21.523,88.9237,1.593182643238473,1.5177384260800673,0.00542,0.1804
1771240843.4934618,21.5222,88.9991,1.5934525114196085,1.4993896925082553,0.00576,-0.2986
1771240843.5456345,21.5194,89.0766,1.5936070817420234,1.474353855083643,0.00426,-0.7431
1771240843.5936043,21.5194,89.15,1.5935967343910447,1.4583274015117456,0.00247,-0.0807
1771240843.6499517,21.5191,89.2222,1.593604526363473,1.4354634408441058,-0.00046,-0.4723
1771240843.6920748,21.5185,89.2934,1.5937412627908234,1.4148997420312157,0.00298,-0.2751
1771240843.743098,21.5172,89.3635,1.5939269607189623,1.3887260132941992,0.00243,-0.2905
1771240843.792076,21.5334,89.44,1.5939666578210732,1.359421836664396,-0.00062,-0.5306
1771240843.8414764,21.5326,89.5071,1.5939294017771395,1.322474105606609,-0.00098,-0.5115
1771240843.8985372,21.5316,89.5723,1.593877844297788,1.2869851009238606,0.00131,-0.5778
1771240843.9471557,21.5308,89.6358,1.5939378948250136,1.2530126296250967,0.00106,-0.6767
1771240843.992731,21.5302,89.6976,1.5940523165455114,1.2211857721084047,0.00149,-0.5671
1771240844.0426655,21.5323,89.764,1.5940237113622782,1.1934639709685417,0.00055,-0.4447
1771240844.0940783,21.5324,89.8228,1.5940695860753022,1.1608466737687628,-0.00053,-0.3055
1771240844.1427226,21.5326,89.8801,1.5941152620387447,1.1272258070147259,5e-05,-1.021
1771240844.1950724,21.5324,89.9356,1.594175424533546,1.091137154531913,0.00191,-0.5902
1771240844.2419033,21.532,89.9892,1.5943214674700363,1.0547747626863282,0.00284,-0.5256
1771240844.293111,21.5288,90.0433,1.5944072479170188,1.0206449382620775,0.00098,-0.7936
1771240844.344258,21.5285,90.0934,1.5943156732260613,0.9847112267055759,-0.00325,-0.6865
1771240844.3946686,21.5282,90.1416,1.5943213476721252,0.946569263181517,-0.00076,-0.7279
1771240844.4437215,21.528,90.188,1.5944329440761842,0.9058808420537439,0.00259,-0.8672
1771240844.4916697,21.528,90.2322,1.5944645489041869,0.8626831225890537,0.0002,-0.7096
1771240844.5444143,21.5282,90.2743,1.5944847714495005,0.8169935740261364,-0.0003,-0.922
1771240844.5941567,21.5154,90.3109,1.594381971655444,0.7663691342949558,0.00154,-1.2099
1771240844.6457222,21.5153,90.3481,1.5944626748658348,0.7211359095205285,0.00254,-0.8898
1771240844.6922967,21.5152,90.3829,1.5945863553914394,0.6751031328619355,0.00126,-0.9268
1771240844.7435453,21.515,90.4155,1.5946470725206316,0.6255094323829178,-0.00058,-0.9678
1771240844.7970724,21.5148,90.4456,1.5946391812513887,0.5783143522341462,-0.00015,-0.9605
1771240844.8437357,21.509,90.4647,1.5947051753916917,0.5213009591397276,0.00163,-1.0127
1771240844.901741,21.5083,90.4896,1.594782003204495,0.47660205622720514,0.00125,-0.8513
1771240844.9454978,21.5078,90.5125,1.5947590444086837,0.4397147370739352,-0.00182,-0.6629
1771240845.0002637,21.5074,90.5335,1.5947106185594837,0.4014054932359546,-0.00103,-0.8357
1771240845.0417674,21.507,90.5526,1.59472770632893,0.3590061420087406,0.00157,-0.9304
1771240845.102028,21.5044,90.5715,1.5947501808317632,0.320704505736979,0.00193,-0.7827
1771240845.1485026,21.504,90.5867,1.5947987227313578,0.2863127311175666,-0.00018,-0.7109
1771240845.1956708,21.5035,90.6002,1.5948015091679708,0.2535063904519963,0.00121,-0.7211
1771240845.247279,21.5032,90.612,1.5947844913063485,0.2181022925143154,0.00014,-0.7478
1771240845.293167,21.5028,90.622,1.5948044242754285,0.18515469208205337,0.00043,-0.6925
1771240845.3422167,21.5041,90.6501,1.5947527831269623,0.17210569426953892,0.00077,-0.6029
1771240845.3926926,21.5039,90.6579,1.59477587602752,0.13920014367808675,0.00045,-0.6478
1771240845.4454436,21.5037,90.6641,1.5947528434951714,0.10691515327585702,-0.00052,-0.6838
1771240845.4924264,21.5035,90.6686,1.5947212169292821,0.07740930176664818,-0.00135,-0.5544
1771240845.543101,21.5033,90.6717,1.5947211859651107,0.047234309564129336,-0.00013,-0.5946
1771240845.595194,21.5068,90.6793,1.5947097828837558,0.023234887561595814,0.0002,-0.5703
1771240845.642096,21.507,90.6797,1.5946985207262578,0.009489467845985885,-0.00108,-0.7045
1771240845.693385,21.507,90.6797,1.5946985207262578,0.009489467845985885,-0.00097,-0.4333
1771240845.74617,21.507,90.6797,1.5946985207262578,0.009489467845985885,0.00248,0.0628
1771240845.792352,21.507,90.6797,1.5946985207262578,0.009489467845985885,-0.00045,0.0493
1771240845.8469272,21.507,90.6797,1.5946985207262578,0.009489467845985885,-0.00309,-0.0197
1771240845.8925817,21.5077,90.6724,1.5947136150078114,0.027906450867138232,-0.00015,0.1738
1771240845.942978,21.5077,90.6712,1.5947708060712806,0.021000952359357422,0.00168,0.2442
1771240845.995703,21.5079,90.6703,1.594782238383036,0.014413882197381801,-9e-05,0.2113
1771240846.0418234,21.5079,90.6703,1.594782238383036,0.014413882197381801,-0.00138,0.0325
1771240846.095128,21.5079,90.6703,1.594782238383036,0.014413882197381801,0.00062,-0.0601
1771240846.146352,21.5117,90.6752,1.594796539546299,0.013482581355215328,0.00012,-0.0996
1771240846.192916,21.5117,90.6752,1.594796539546299,0.013482581355215328,-0.00033,0.0867
1771240846.245992,21.5117,90.6752,1.594796539546299,0.013482581355215328,0.0003,0.1174
1771240846.291787,21.5117,90.6752,1.594796539546299,0.013482581355215328,-0.00014,0.0053
1771240846.3417375,21.5117,90.6752,1.594796539546299,0.013482581355215328,-0.00035,-0.0271
1771240846.3921592,21.5117,90.6752,1.594796539546299,0.013482581355215328,-0.00032,0.0209
1771240846.4447742,21.5107,90.6789,1.5947192582566674,0.0003162277660168379,-0.00023,0.0239
1771240846.496348,21.5107,90.6789,1.5947192582566674,0.0003162277660168379,-0.00033,0.0127
