Topic:,/fixposition/fpa/odomenu
time,pos_x,pos_y,pos_z,qx,qy,qz,qw,vel_x,vel_y,vel_z,ang_vel_x,ang_vel_y,ang_vel_z,acc_x,acc_y,acc_z,fusion_status,imu_bias_status,gnss1_status,gnss2_status,wheelspeed_status
1771240778.4930167,22.2799,21.6129,-1.9596,0.002818,0.003587,-0.75142,-0.659809,-0.0002,-0.0006,-0.0005,0.00032,0.00127,0.00025,0.0176,-0.0833,9.8076,4,1,8,8,-1
1771240778.5527408,22.2799,21.6129,-1.9596,0.002818,0.003587,-0.75142,-0.659809,-0.0002,-0.0006,-0.0005,0.00192,-0.00264,-0.0001,-0.0069,-0.0951,9.7963,4,1,8,8,-1
1771240778.5932317,22.2799,21.6129,-1.9596,0.002818,0.003587,-0.75142,-0.659809,-0.0002,-0.0006,-0.0005,-0.00062,-4e-05,-0.00047,-0.0052,-0.1043,9.8028,4,1,8,8,-1
1771240778.646034,22.2799,21.6129,-1.9596,0.002818,0.003587,-0.75142,-0.659809,-0.0002,-0.0006,-0.0005,-0.00043,0.00153,-0.00036,0.011,-0.1025,9.8073,4,1,8,8,-1
1771240778.6928535,22.2799,21.6129,-1.9596,0.002818,0.003587,-0.75142,-0.659809,-0.0002,-0.0006,-0.0005,0.00071,0.00039,-7e-05,0.009,-0.0895,9.799,4,1,8,8,-1
1771240778.7480617,22.2801,21.613,-1.9597,0.00278,0.003608,-0.751414,-0.659815,-0.0006,-0.0006,-0.0005,-0.00188,0.00328,0.0002,-0.0034,-0.0828,9.8106,4,1,8,8,-1
1771240778.7960346,22.2801,21.613,-1.9597,0.00278,0.003608,-0.751414,-0.659815,-0.0006,-0.0006,-0.0005,0.00071,-0.00072,-3e-05,-0.0004,-0.0863,9.8102,4,1,8,8,-1
1771240778.8516667,22.2801,21.613,-1.9597,0.00278,0.003608,-0.751414,-0.659815,-0.0006,-0.0006,-0.0005,0.00181,-0.00187,1e-05,0.0005,-0.0864,9.8041,4,1,8,8,-1
1771240778.8928688,22.2801,21.613,-1.9597,0.00278,0.003608,-0.751414,-0.659815,-0.0006,-0.0006,-0.0005,0.00037,0.0019,0.00021,0.0118,-0.0974,9.8021,4,1,8,8,-1
1771240778.954645,22.2801,21.613,-1.9597,0.00278,0.003608,-0.751414,-0.659815,-0.0006,-0.0006,-0.0005,-0.00116,0.002,-0.00028,-0.0001,-0.089,9.8108,4,1,8,8,-1
1771240778.9989407,22.2797,21.6131,-1.9607,0.002751,0.003611,-0.751409,-0.659821,-0.0002,-0.0008,-0.0011,0.00084,-0.00493,-0.00056,0.0004,-0.077,9.7986,4,1,8,8,-1
1771240779.045246,22.2797,21.6131,-1.9607,0.002751,0.003611,-0.751409,-0.659821,-0.0002,-0.0008,-0.0011,0.0006,-0.00124,6e-05,0.0032,-0.0969,9.8156,4,1,8,8,-1
1771240779.0932066,22.2797,21.6131,-1.9607,0.002751,0.003611,-0.751409,-0.659821,-0.0002,-0.0008,-0.0011,0.00042,-0.00053,-0.00048,-0.0017,-0.0943,9.8116,4,1,8,8,-1
1771240779.1425462,22.2797,21.6131,-1.9607,0.002751,0.003611,-0.751409,-0.659821,-0.0002,-0.0008,-0.0011,-0.00039,-0.00061,-0.00013,0.0024,-0.1093,9.8059,4,1,8,8,-1
1771240779.193679,22.2797,21.6131,-1.9607,0.002751,0.003611,-0.751409,-0.659821,-0.0002,-0.0008,-0.0011,0.00081,-0.00361,-0.00017,0.0047,-0.0832,9.8045,4,1,8,8,-1
1771240779.2424774,22.2796,21.6134,-1.9612,0.00262,0.003628,-0.751411,-0.65982,-0.0007,-0.0002,-0.0015,2e-05,-0.0015,-0.0003,0.01,-0.0958,9.8181,4,1,8,8,-1
1771240779.2932074,22.2796,21.6134,-1.9612,0.00262,0.003628,-0.751411,-0.65982,-0.0007,-0.0002,-0.0015,-0.00052,-0.00334,-0.00056,0.0073,-0.0909,9.8113,4,1,8,8,-1
1771240779.3424819,22.2796,21.6134,-1.9612,0.00262,0.003628,-0.751411,-0.65982,-0.0007,-0.0002,-0.0015,0.00071,-0.0016,-0.00058,-0.0028,-0.0958,9.8109,4,1,8,8,-1
1771240779.3927636,22.2796,21.6134,-1.9612,0.00262,0.003628,-0.751411,-0.65982,-0.0007,-0.0002,-0.0015,-0.00013,0.0006,0.00025,0.0102,-0.0923,9.8012,4,1,8,8,-1
1771240779.4473457,22.2796,21.6134,-1.9612,0.00262,0.003628,-0.751411,-0.65982,-0.0007,-0.0002,-0.0015,-0.00016,-0.00069,0.00047,-0.0004,-0.0965,9.8095,4,1,8,8,-1
1771240779.4961836,22.2796,21.6134,-1.9612,0.00262,0.003628,-0.751411,-0.65982,-0.0007,-0.0002,-0.0015,0.00075,-0.00185,-9e-05,0.0054,-0.0916,9.8067,4,1,8,8,-1
1771240779.5431247,22.2796,21.6136,-1.9616,0.002494,0.00371,-0.751401,-0.659831,-0.0005,-0.0014,-0.0014,0.00079,-0.00022,-0.0004,0.0076,-0.0996,9.8101,4,1,8,8,-1
1771240779.5938594,22.2796,21.6136,-1.9616,0.002494,0.00371,-0.751401,-0.659831,-0.0005,-0.0014,-0.0014,0.00037,-0.00109,0.00016,-0.0112,-0.0955,9.806,4,1,8,8,-1
1771240779.643247,22.2796,21.6136,-1.9616,0.002494,0.00371,-0.751401,-0.659831,-0.0005,-0.0014,-0.0014,0.00069,0.00011,0.00039,-0.001,-0.0977,9.8038,4,1,8,8,-1
1771240779.721571,22.2796,21.6136,-1.9616,0.002494,0.00371,-0.751401,-0.659831,-0.0005,-0.0014,-0.0014,-0.00056,0.0004,-0.0004,0.0129,-0.0828,9.8162,4,1,8,8,-1
1771240779.7431703,22.2796,21.6136,-1.9616,0.002494,0.00371,-0.751401,-0.659831,-0.0005,-0.0014,-0.0014,0.00013,0.0027,-0.0002,-0.0004,-0.093,9.8007,4,1,8,8,-1
1771240779.7967365,22.2794,21.6135,-1.9621,0.0025,0.003703,-0.751408,-0.659823,-0.0008,-0.0012,-0.0011,0.0016,-0.00428,-0.00074,-0.0026,-0.0944,9.8226,4,1,8,8,-1
1771240779.8429594,22.2794,21.6135,-1.9621,0.0025,0.003703,-0.751408,-0.659823,-0.0008,-0.0012,-0.0011,0.00089,-0.00052,0.00015,0.0035,-0.1021,9.8127,4,1,8,8,-1
1771240779.8936296,22.2794,21.6135,-1.9621,0.0025,0.003703,-0.751408,-0.659823,-0.0008,-0.0012,-0.0011,-0.0012,0.0018,0.0001,0.0045,-0.0968,9.7993,4,1,8,8,-1
1771240779.9448707,22.2794,21.6135,-1.9621,0.0025,0.003703,-0.751408,-0.659823,-0.0008,-0.0012,-0.0011,4e-05,0.00162,0.0,0.0013,-0.0922,9.8049,4,1,8,8,-1
1771240779.992427,22.2794,21.6135,-1.9621,0.0025,0.003703,-0.751408,-0.659823,-0.0008,-0.0012,-0.0011,0.00018,-0.0004,-0.00066,-0.0007,-0.0893,9.8176,4,1,8,8,-1
1771240780.0426161,22.2792,21.6136,-1.9625,0.002548,0.003672,-0.7514,-0.659831,-0.0012,-0.0011,-0.0011,0.00073,0.00061,-0.00012,-0.0006,-0.0756,9.8112,4,1,8,8,-1
1771240780.0930529,22.2792,21.6136,-1.9625,0.002548,0.003672,-0.7514,-0.659831,-0.0012,-0.0011,-0.0011,0.00119,-0.00359,-0.00062,0.004,-0.1055,9.8058,4,1,8,8,-1
1771240780.1430244,22.2792,21.6136,-1.9625,0.002548,0.003672,-0.7514,-0.659831,-0.0012,-0.0011,-0.0011,-0.00044,-0.00046,-0.00022,0.0033,-0.1069,9.81,4,1,8,8,-1
1771240780.1926284,22.2792,21.6136,-1.9625,0.002548,0.003672,-0.7514,-0.659831,-0.0012,-0.0011,-0.0011,0.00129,-0.00145,-0.00015,0.0054,-0.0972,9.805,4,1,8,8,-1
1771240780.2426975,22.2792,21.6136,-1.9625,0.002548,0.003672,-0.7514,-0.659831,-0.0012,-0.0011,-0.0011,0.00084,-0.00141,-0.00052,-0.0003,-0.1043,9.8103,4,1,8,8,-1
1771240780.292285,22.2792,21.6136,-1.9625,0.002548,0.003672,-0.7514,-0.659831,-0.0012,-0.0011,-0.0011,-0.00013,-0.00076,-0.0005,0.0034,-0.0788,9.8037,4,1,8,8,-1
1771240780.3421574,22.2791,21.6137,-1.9628,0.00255,0.003657,-0.751396,-0.659836,-0.0012,-0.0009,-0.0007,-0.00243,0.0036,0.0003,0.0158,-0.1039,9.8118,4,1,8,8,-1
1771240780.3971677,22.2791,21.6137,-1.9628,0.00255,0.003657,-0.751396,-0.659836,-0.0012,-0.0009,-0.0007,0.00048,-0.00087,3e-05,0.0039,-0.119,9.8088,4,1,8,8,-1
1771240780.442532,22.2791,21.6137,-1.9628,0.00255,0.003657,-0.751396,-0.659836,-0.0012,-0.0009,-0.0007,-0.00033,-9e-05,-0.00031,0.0119,-0.0997,9.8118,4,1,8,8,-1
1771240780.5004005,22.2791,21.6137,-1.9628,0.00255,0.003657,-0.751396,-0.659836,-0.0012,-0.0009,-0.0007,0.00113,0.0002,0.00017,0.01,-0.0969,9.7974,4,1,8,8,-1
1771240780.5480475,22.2791,21.6137,-1.9628,0.00255,0.003657,-0.751396,-0.659836,-0.0012,-0.0009,-0.0007,-0.00087,0.00238,0.00025,-0.0023,-0.078,9.8117,4,1,8,8,-1
1771240780.6029425,22.2796,21.6136,-1.9627,0.002678,0.003665,-0.751396,-0.659836,-0.0013,-0.0016,-0.0003,0.00078,0.00058,0.0002,-0.0128,-0.0891,9.8078,4,1,8,8,-1
1771240780.6427362,22.2796,21.6136,-1.9627,0.002678,0.003665,-0.751396,-0.659836,-0.0013,-0.0016,-0.0003,0.0021,-0.00343,-0.00053,-0.0019,-0.095,9.8057,4,1,8,8,-1
1771240780.700207,22.2796,21.6136,-1.9627,0.002678,0.003665,-0.751396,-0.659836,-0.0013,-0.0016,-0.0003,0.00063,-0.00259,-0.00058,0.0052,-0.0797,9.8271,4,1,8,8,-1
1771240780.743441,22.2796,21.6136,-1.9627,0.002678,0.003665,-0.751396,-0.659836,-0.0013,-0.0016,-0.0003,0.00078,-0.00154,-0.00022,0.0247,-0.1086,9.8079,4,1,8,8,-1
1771240780.79779,22.2796,21.6136,-1.9627,0.002678,0.003665,-0.751396,-0.659836,-0.0013,-0.0016,-0.0003,-0.00021,0.00206,-3e-05,0.0046,-0.0903,9.7854,4,1,8,8,-1
1771240780.8443735,22.2795,21.6136,-1.9628,0.002701,0.003622,-0.751396,-0.659837,-0.0018,-0.0014,-0.0011,0.00448,-0.00244,0.00058,-0.0094,-0.1025,9.7711,4,1,8,8,-1
1771240780.9056711,22.2795,21.6136,-1.9628,0.002701,0.003622,-0.751396,-0.659837,-0.0018,-0.0014,-0.0011,-0.00141,0.00773,0.0008,-0.0084,-0.0998,9.8117,4,1,8,8,-1
1771240780.9434588,22.2795,21.6136,-1.9628,0.002701,0.003622,-0.751396,-0.659837,-0.0018,-0.0014,-0.0011,6e-05,-0.00146,-0.00017,0.005,-0.0649,9.8311,4,1,8,8,-1
1771240781.000757,22.2795,21.6136,-1.9628,0.002701,0.003622,-0.751396,-0.659837,-0.0018,-0.0014,-0.0011,0.0003,-0.00152,-0.00013,-0.0014,-0.0996,9.8167,4,1,8,8,-1
1771240781.047796,22.2795,21.6136,-1.9628,0.002701,0.003622,-0.751396,-0.659837,-0.0018,-0.0014,-0.0011,0.00095,0.00133,3e-05,0.0484,-0.0745,9.8001,4,1,8,8,-1
1771240781.1100829,22.2795,21.6136,-1.9628,0.002701,0.003622,-0.751396,-0.659837,-0.0018,-0.0014,-0.0011,-0.00018,-0.00015,-0.00048,-0.0155,-0.0993,9.8249,4,1,8,8,-1
1771240781.1424363,22.2797,21.6136,-1.9625,0.002736,0.003537,-0.751411,-0.659819,-0.0012,-0.002,-0.0003,0.0005,-0.00426,-0.00106,-0.0082,-0.104,9.8121,4,1,8,8,-1
1771240781.1934643,22.2797,21.6136,-1.9625,0.002736,0.003537,-0.751411,-0.659819,-0.0012,-0.002,-0.0003,0.00045,-0.00395,-0.00069,-0.0004,-0.1159,9.8156,4,1,8,8,-1
1771240781.2424567,22.2797,21.6136,-1.9625,0.002736,0.003537,-0.751411,-0.659819,-0.0012,-0.002,-0.0003,0.00085,0.00193,-0.00013,0.0255,-0.0876,9.8078,4,1,8,8,-1
1771240781.294347,22.2797,21.6136,-1.9625,0.002736,0.003537,-0.751411,-0.659819,-0.0012,-0.002,-0.0003,0.00078,-0.00084,0.00013,-0.0085,-0.073,9.8099,4,1,8,8,-1
1771240781.344554,22.2797,21.6136,-1.9625,0.002736,0.003537,-0.751411,-0.659819,-0.0012,-0.002,-0.0003,-2e-05,-0.00023,-0.00108,-0.0018,-0.106,9.816,4,1,8,8,-1
1771240781.3941307,22.2796,21.6134,-1.9626,0.002657,0.003575,-0.751407,-0.659824,-0.001,0.0006,-0.0003,-0.0004,0.00105,-3e-05,-0.0214,-0.0543,9.8244,4,1,8,8,-1
1771240781.442562,22.2796,21.6134,-1.9626,0.002657,0.003575,-0.751407,-0.659824,-0.001,0.0006,-0.0003,-0.00267,0.00472,0.00106,0.0037,-0.0895,9.8072,4,1,8,8,-1
1771240781.5026987,22.2796,21.6134,-1.9626,0.002657,0.003575,-0.751407,-0.659824,-0.001,0.0006,-0.0003,0.00117,-4e-05,0.00049,0.025,-0.1569,9.7598,4,1,8,8,-1
1771240781.543157,22.2796,21.6134,-1.9626,0.002657,0.003575,-0.751407,-0.659824,-0.001,0.0006,-0.0003,-9e-05,0.00031,1e-05,-0.037,0.0096,9.8298,4,1,8,8,-1
1771240781.592524,22.2796,21.6134,-1.9626,0.002657,0.003575,-0.751407,-0.659824,-0.001,0.0006,-0.0003,-0.00186,0.00079,0.00056,0.0039,-0.1029,9.8295,4,1,8,8,-1
1771240781.6432211,22.2796,21.6134,-1.9626,0.002657,0.003575,-0.751407,-0.659824,-0.001,0.0006,-0.0003,0.00189,0.00271,-0.00012,-0.0011,-0.1116,9.7854,4,1,8,8,-1
1771240781.6945393,22.28,21.6135,-1.9623,0.00273,0.003556,-0.75141,-0.65982,-0.0012,0.0002,-0.0006,-2e-05,-0.00208,-0.00021,-0.0027,-0.056,9.7907,4,1,8,8,-1
1771240781.7432985,22.28,21.6135,-1.9623,0.00273,0.003556,-0.75141,-0.65982,-0.0012,0.0002,-0.0006,-0.00012,0.00077,0.0001,0.0611,-0.1124,9.8167,4,1,8,8,-1
1771240781.8002136,22.28,21.6135,-1.9623,0.00273,0.003556,-0.75141,-0.65982,-0.0012,0.0002,-0.0006,0.00109,-0.00029,-0.00011,-0.0081,-0.0738,9.8383,4,1,8,8,-1
1771240781.8470848,22.28,21.6135,-1.9623,0.00273,0.003556,-0.75141,-0.65982,-0.0012,0.0002,-0.0006,-0.00086,0.001,0.00033,-0.0144,-0.111,9.7922,4,1,8,8,-1
1771240781.8961673,22.28,21.6135,-1.9623,0.00273,0.003556,-0.75141,-0.65982,-0.0012,0.0002,-0.0006,0.00042,-0.00032,-0.00082,-0.0035,-0.0973,9.7894,4,1,8,8,-1
1771240781.9429452,22.28,21.6135,-1.9623,0.00273,0.003556,-0.75141,-0.65982,-0.0012,0.0002,-0.0006,-0.00082,-0.00091,0.00095,0.0093,-0.0811,9.8161,4,1,8,8,-1
1771240781.9922755,22.28,21.6136,-1.962,0.002686,0.003587,-0.751402,-0.65983,-0.0016,-0.0011,-0.0016,0.00113,0.00123,-0.0004,0.0223,-0.1125,9.8219,4,1,8,8,-1
1771240782.04461,22.28,21.6136,-1.962,0.002686,0.003587,-0.751402,-0.65983,-0.0016,-0.0011,-0.0016,6e-05,0.00086,0.0003,-0.0276,-0.0628,9.8059,4,1,8,8,-1
1771240782.0920534,22.28,21.6136,-1.962,0.002686,0.003587,-0.751402,-0.65983,-0.0016,-0.0011,-0.0016,-0.00135,0.00211,-7e-05,-0.0013,-0.0893,9.7899,4,1,8,8,-1
1771240782.145872,22.28,21.6136,-1.962,0.002686,0.003587,-0.751402,-0.65983,-0.0016,-0.0011,-0.0016,0.00061,-0.00057,-0.00017,0.0207,-0.0924,9.811,4,1,8,8,-1
1771240782.1978357,22.2805,21.6137,-1.9616,0.002733,0.003568,-0.751432,-0.659795,-0.0001,-0.0016,0.0002,0.00237,-0.00499,-0.00033,0.0151,-0.1062,9.8104,4,1,8,8,-1
1771240782.244634,22.2805,21.6137,-1.9616,0.002733,0.003568,-0.751432,-0.659795,-0.0001,-0.0016,0.0002,0.0017,0.0033,0.00051,-0.0054,-0.0833,9.8046,4,1,8,8,-1
1771240782.2945962,22.2805,21.6137,-1.9616,0.002733,0.003568,-0.751432,-0.659795,-0.0001,-0.0016,0.0002,-0.00074,-0.00106,-0.00049,-0.0029,-0.0962,9.8072,4,1,8,8,-1
1771240782.3431482,22.2805,21.6137,-1.9616,0.002733,0.003568,-0.751432,-0.659795,-0.0001,-0.0016,0.0002,-0.00169,0.00189,-0.00049,0.0065,-0.0779,9.8115,4,1,8,8,-1
1771240782.3928928,22.2805,21.6137,-1.9616,0.002733,0.003568,-0.751432,-0.659795,-0.0001,-0.0016,0.0002,-0.00125,0.00173,0.00058,0.0048,-0.0954,9.8101,4,1,8,8,-1
1771240782.4435377,22.2805,21.6137,-1.9616,0.002733,0.003568,-0.751432,-0.659795,-0.0001,-0.0016,0.0002,0.00162,-0.00237,-0.00032,0.0013,-0.1107,9.8068,4,1,8,8,-1
1771240782.4975848,22.2804,21.6132,-1.962,0.002704,0.003559,-0.751436,-0.659791,-0.0011,-0.0007,-0.0007,0.0012,-0.00177,-1e-05,-0.0033,-0.0779,9.8163,4,1,8,8,-1
1771240782.5441668,22.2804,21.6132,-1.962,0.002704,0.003559,-0.751436,-0.659791,-0.0011,-0.0007,-0.0007,0.00096,0.00071,0.00015,0.0114,-0.1134,9.811,4,1,8,8,-1
1771240782.5933237,22.2804,21.6132,-1.962,0.002704,0.003559,-0.751436,-0.659791,-0.0011,-0.0007,-0.0007,0.00058,0.00089,8e-05,0.0004,-0.0752,9.795,4,1,8,8,-1
1771240782.645268,22.2804,21.6132,-1.962,0.002704,0.003559,-0.751436,-0.659791,-0.0011,-0.0007,-0.0007,0.00048,-0.00115,-0.00014,-0.0015,-0.1046,9.8092,4,1,8,8,-1
1771240782.6936588,22.2804,21.6132,-1.962,0.002704,0.003559,-0.751436,-0.659791,-0.0011,-0.0007,-0.0007,4e-05,0.00082,0.00028,0.0018,-0.1044,9.8129,4,1,8,8,-1
1771240782.748794,22.2806,21.6129,-1.9619,0.002673,0.003574,-0.75144,-0.659786,-0.0009,-0.0009,-0.0007,-0.00133,0.00377,0.0005,0.0094,-0.0852,9.8057,4,1,8,8,-1
1771240782.7926025,22.2806,21.6129,-1.9619,0.002673,0.003574,-0.75144,-0.659786,-0.0009,-0.0009,-0.0007,0.00095,-0.00276,-0.00074,0.0031,-0.0973,9.8065,4,1,8,8,-1
1771240782.8529031,22.2806,21.6129,-1.9619,0.002673,0.003574,-0.75144,-0.659786,-0.0009,-0.0009,-0.0007,-0.00017,-0.00076,2e-05,-0.0066,-0.0784,9.8069,4,1,8,8,-1
1771240782.8943508,22.2806,21.6129,-1.9619,0.002673,0.003574,-0.75144,-0.659786,-0.0009,-0.0009,-0.0007,0.00144,-0.00223,6e-05,0.003,-0.0926,9.8166,4,1,8,8,-1
1771240782.9505715,22.2806,21.6129,-1.9619,0.002673,0.003574,-0.75144,-0.659786,-0.0009,-0.0009,-0.0007,-0.00012,0.00031,-6e-05,0.0057,-0.095,9.8099,4,1,8,8,-1
1771240782.9928713,22.2806,21.6129,-1.9619,0.002673,0.003574,-0.75144,-0.659786,-0.0009,-0.0009,-0.0007,0.00045,0.00125,0.00021,-0.0006,-0.1052,9.8022,4,1,8,8,-1
1771240783.0477684,22.2805,21.6128,-1.9619,0.002751,0.003526,-0.751438,-0.659789,-0.0011,-0.0017,-0.0004,-0.00018,0.00014,4e-05,-0.0042,-0.0888,9.8109,4,1,8,8,-1
1771240783.0930166,22.2805,21.6128,-1.9619,0.002751,0.003526,-0.751438,-0.659789,-0.0011,-0.0017,-0.0004,0.0002,0.00044,0.00039,-0.0005,-0.0934,9.8026,4,1,8,8,-1
1771240783.1498508,22.2805,21.6128,-1.9619,0.002751,0.003526,-0.751438,-0.659789,-0.0011,-0.0017,-0.0004,-0.00068,0.00292,3e-05,-0.0002,-0.0945,9.8198,4,1,8,8,-1
1771240783.1944609,22.2805,21.6128,-1.9619,0.002751,0.003526,-0.751438,-0.659789,-0.0011,-0.0017,-0.0004,-0.0002,0.00023,-0.00027,0.0064,-0.0999,9.8036,4,1,8,8,-1
1771240783.262026,22.2805,21.6128,-1.9619,0.002751,0.003526,-0.751438,-0.659789,-0.0011,-0.0017,-0.0004,0.00126,-0.00206,9e-05,-0.0039,-0.0882,9.801,4,1,8,8,-1
1771240783.2928238,22.2805,21.6126,-1.9619,0.002781,0.003523,-0.75144,-0.659786,-0.0011,-0.0007,-0.0003,0.00212,-0.00319,9e-05,0.0065,-0.1003,9.8033,4,1,8,8,-1
1771240783.3433042,22.2805,21.6126,-1.9619,0.002781,0.003523,-0.75144,-0.659786,-0.0011,-0.0007,-0.0003,-0.00073,0.00046,-0.00059,0.0095,-0.0828,9.8071,4,1,8,8,-1
1771240783.3959053,22.2805,21.6126,-1.9619,0.002781,0.003523,-0.75144,-0.659786,-0.0011,-0.0007,-0.0003,-1e-05,9e-05,0.00034,-0.0046,-0.0859,9.8165,4,1,8,8,-1
1771240783.444602,22.2805,21.6126,-1.9619,0.002781,0.003523,-0.75144,-0.659786,-0.0011,-0.0007,-0.0003,0.00048,-0.00031,-0.00022,0.0098,-0.1036,9.7972,4,1,8,8,-1
1771240783.4949484,22.2805,21.6126,-1.9619,0.002781,0.003523,-0.75144,-0.659786,-0.0011,-0.0007,-0.0003,0.00023,0.00129,0.00048,-0.0076,-0.0924,9.8053,4,1,8,8,-1
1771240783.551535,22.2805,21.6127,-1.9617,0.002797,0.003518,-0.751453,-0.659771,-0.0005,-0.0018,-0.0006,-0.00094,0.00231,-0.00054,0.0085,-0.0956,9.8046,4,1,8,8,-1
1771240783.5943613,22.2805,21.6127,-1.9617,0.002797,0.003518,-0.751453,-0.659771,-0.0005,-0.0018,-0.0006,0.00065,-0.00126,-0.00012,-0.0093,-0.0921,9.8097,4,1,8,8,-1
1771240783.644209,22.2805,21.6127,-1.9617,0.002797,0.003518,-0.751453,-0.659771,-0.0005,-0.0018,-0.0006,0.00265,-0.00143,0.00012,-0.0008,-0.0767,9.8228,4,1,8,8,-1
1771240783.6965342,22.2805,21.6127,-1.9617,0.002797,0.003518,-0.751453,-0.659771,-0.0005,-0.0018,-0.0006,-0.00046,-0.00219,0.00022,0.0215,-0.1072,9.8005,4,1,8,8,-1
1771240783.746917,22.2805,21.6127,-1.9617,0.002797,0.003518,-0.751453,-0.659771,-0.0005,-0.0018,-0.0006,0.00118,-0.00256,-0.00039,0.0021,-0.0762,9.8113,4,1,8,8,-1
1771240783.7923646,22.2805,21.6127,-1.9617,0.002797,0.003518,-0.751453,-0.659771,-0.0005,-0.0018,-0.0006,0.00122,-0.00288,-0.00015,0.0103,-0.0928,9.8112,4,1,8,8,-1
1771240783.8484151,22.2804,21.6129,-1.9613,0.002742,0.003525,-0.751439,-0.659788,-0.0007,-0.0012,-0.0011,0.0014,-0.0036,-0.00033,0.0054,-0.0844,9.8097,4,1,8,8,-1
1771240783.89561,22.2804,21.6129,-1.9613,0.002742,0.003525,-0.751439,-0.659788,-0.0007,-0.0012,-0.0011,-0.00033,8e-05,0.00028,-0.0147,-0.0624,9.8203,4,1,8,8,-1
1771240783.946629,22.2804,21.6129,-1.9613,0.002742,0.003525,-0.751439,-0.659788,-0.0007,-0.0012,-0.0011,-0.00087,0.00265,-9e-05,-0.0069,-0.1042,9.8025,4,1,8,8,-1
1771240783.9937267,22.2804,21.6129,-1.9613,0.002742,0.003525,-0.751439,-0.659788,-0.0007,-0.0012,-0.0011,-0.0006,0.00332,0.00041,-0.0262,-0.0891,9.8157,4,1,8,8,-1
1771240784.0431337,22.2804,21.6129,-1.9613,0.002742,0.003525,-0.751439,-0.659788,-0.0007,-0.0012,-0.0011,0.00092,-0.00178,-0.00016,0.0206,-0.0844,9.8165,4,1,8,8,-1
1771240784.0939999,22.2803,21.6131,-1.9613,0.002621,0.003552,-0.751429,-0.659799,0.0005,-0.0008,-0.0008,0.00164,-0.00164,-5e-05,0.0292,-0.0863,9.8103,4,1,8,8,-1
1771240784.1433458,22.2803,21.6131,-1.9613,0.002621,0.003552,-0.751429,-0.659799,0.0005,-0.0008,-0.0008,-0.00162,-0.00357,0.0003,-0.0958,-0.0838,9.7803,4,1,8,8,-1
1771240784.1926048,22.2803,21.6131,-1.9613,0.002621,0.003552,-0.751429,-0.659799,0.0005,-0.0008,-0.0008,-0.00011,0.001,0.00027,-0.0281,-0.0973,9.7982,4,1,8,8,-1
1771240784.2437363,22.2803,21.6131,-1.9613,0.002621,0.003552,-0.751429,-0.659799,0.0005,-0.0008,-0.0008,-0.00042,-0.0006,0.00036,-0.0101,-0.0927,9.8076,4,1,8,8,-1
1771240784.2938924,22.2803,21.6131,-1.9613,0.002621,0.003552,-0.751429,-0.659799,0.0005,-0.0008,-0.0008,-0.00064,0.00272,5e-05,0.0255,-0.1016,9.812,4,1,8,8,-1
1771240784.3446846,22.2803,21.6131,-1.9613,0.002621,0.003552,-0.751429,-0.659799,0.0005,-0.0008,-0.0008,-0.00014,0.00164,-0.0001,0.0254,-0.0632,9.8341,4,1,8,8,-1
1771240784.3921943,22.2806,21.6128,-1.9614,0.002597,0.003538,-0.751435,-0.659792,-0.0017,-0.0012,-0.0011,0.00044,-0.00282,-0.00027,-0.024,-0.0958,9.7832,4,1,8,8,-1
1771240784.4435325,22.2806,21.6128,-1.9614,0.002597,0.003538,-0.751435,-0.659792,-0.0017,-0.0012,-0.0011,-0.00028,-0.00339,-0.00103,0.0068,-0.1036,9.8222,4,1,8,8,-1
1771240784.4936595,22.2806,21.6128,-1.9614,0.002597,0.003538,-0.751435,-0.659792,-0.0017,-0.0012,-0.0011,0.00057,-0.0017,-0.0003,0.0161,-0.1215,9.8063,4,1,8,8,-1
1771240784.5452104,22.2806,21.6128,-1.9614,0.002597,0.003538,-0.751435,-0.659792,-0.0017,-0.0012,-0.0011,-0.0004,0.00151,0.00033,0.0128,-0.0981,9.8067,4,1,8,8,-1
1771240784.5971084,22.2806,21.6128,-1.9614,0.002597,0.003538,-0.751435,-0.659792,-0.0017,-0.0012,-0.0011,0.00175,-0.0044,-0.00032,-0.002,-0.0756,9.8087,4,1,8,8,-1
1771240784.6453242,22.28,21.6128,-1.9609,0.00255,0.003565,-0.751423,-0.659806,-0.0015,-0.0006,-0.0017,-0.00142,0.00187,0.00015,0.0202,-0.0695,9.7969,4,1,8,8,-1
1771240784.699455,22.28,21.6128,-1.9609,0.00255,0.003565,-0.751423,-0.659806,-0.0015,-0.0006,-0.0017,-0.00184,-0.00023,-0.00029,0.0145,-0.0703,9.8123,4,1,8,8,-1
1771240784.7430298,22.28,21.6128,-1.9609,0.00255,0.003565,-0.751423,-0.659806,-0.0015,-0.0006,-0.0017,0.00019,-0.0012,2e-05,-0.031,-0.1017,9.8305,4,1,8,8,-1
1771240784.7962294,22.28,21.6128,-1.9609,0.00255,0.003565,-0.751423,-0.659806,-0.0015,-0.0006,-0.0017,-0.00042,-0.00012,0.00017,-0.0089,-0.0996,9.7937,4,1,8,8,-1
1771240784.843552,22.28,21.6128,-1.9609,0.00255,0.003565,-0.751423,-0.659806,-0.0015,-0.0006,-0.0017,-0.00034,0.00071,0.00029,0.0311,-0.086,9.8183,4,1,8,8,-1
1771240784.8982837,22.28,21.6128,-1.9609,0.00255,0.003565,-0.751423,-0.659806,-0.0015,-0.0006,-0.0017,-0.00034,0.00297,7e-05,0.0099,-0.0836,9.7868,4,1,8,8,-1
1771240784.943156,22.2801,21.6129,-1.9611,0.002587,0.003557,-0.751418,-0.659812,-0.0008,-0.0015,-0.0014,-0.00032,-0.0003,0.00018,0.0204,-0.0848,9.8091,4,1,8,8,-1
1771240784.996095,22.2801,21.6129,-1.9611,0.002587,0.003557,-0.751418,-0.659812,-0.0008,-0.0015,-0.0014,-0.00147,-0.00207,0.00017,-0.0513,-0.0724,9.8029,4,1,8,8,-1
1771240785.0427651,22.2801,21.6129,-1.9611,0.002587,0.003557,-0.751418,-0.659812,-0.0008,-0.0015,-0.0014,0.00013,0.00162,0.00028,0.0576,-0.124,9.7893,4,1,8,8,-1
1771240785.0965407,22.2801,21.6129,-1.9611,0.002587,0.003557,-0.751418,-0.659812,-0.0008,-0.0015,-0.0014,0.00104,0.0011,-0.00062,0.0275,-0.082,9.7486,4,1,8,8,-1
1771240785.142778,22.2801,21.6129,-1.9611,0.002587,0.003557,-0.751418,-0.659812,-0.0008,-0.0015,-0.0014,-0.00049,-0.00512,0.00068,0.0613,-0.0436,9.788,4,1,8,8,-1
1771240785.200837,22.2798,21.6133,-1.9603,0.002663,0.003548,-0.751424,-0.659805,-0.0009,-0.0009,-0.001,-0.0033,0.00824,0.0002,0.0139,-0.1279,9.8014,4,1,8,8,-1
1771240785.2486012,22.2798,21.6133,-1.9603,0.002663,0.003548,-0.751424,-0.659805,-0.0009,-0.0009,-0.001,0.00033,-5e-05,-0.00071,0.0557,-0.1286,9.8723,4,1,8,8,-1
1771240785.3012428,22.2798,21.6133,-1.9603,0.002663,0.003548,-0.751424,-0.659805,-0.0009,-0.0009,-0.001,0.0001,-0.00279,-0.00026,0.0621,-0.102,9.7629,4,1,8,8,-1
1771240785.3443713,22.2798,21.6133,-1.9603,0.002663,0.003548,-0.751424,-0.659805,-0.0009,-0.0009,-0.001,0.00022,0.00127,-0.0009,0.06,-0.076,9.8315,4,1,8,8,-1
1771240785.4036093,22.2798,21.6133,-1.9603,0.002663,0.003548,-0.751424,-0.659805,-0.0009,-0.0009,-0.001,-2e-05,-0.00144,-0.00071,0.0482,-0.1101,9.8203,4,1,8,8,-1
1771240785.4471145,22.2797,21.6142,-1.9598,0.002711,0.00358,-0.751416,-0.659813,0.008,-0.0027,-0.0001,-0.00037,-0.00049,-0.00107,0.02,-0.0765,9.778,4,1,8,8,-1
1771240785.492468,22.2797,21.6142,-1.9598,0.002711,0.00358,-0.751416,-0.659813,0.008,-0.0027,-0.0001,-0.00023,0.00265,-0.0003,0.035,-0.0946,9.8342,4,1,8,8,-1
1771240785.5478008,22.2797,21.6142,-1.9598,0.002711,0.00358,-0.751416,-0.659813,0.008,-0.0027,-0.0001,0.00053,-0.00432,-0.00109,-0.0143,-0.0803,9.7987,4,1,8,8,-1
1771240785.5929775,22.2797,21.6142,-1.9598,0.002711,0.00358,-0.751416,-0.659813,0.008,-0.0027,-0.0001,3e-05,-0.00186,-0.00129,0.0264,-0.0904,9.8018,4,1,8,8,-1
1771240785.6424115,22.2797,21.6142,-1.9598,0.002711,0.00358,-0.751416,-0.659813,0.008,-0.0027,-0.0001,0.00118,-0.00208,-0.00103,-0.0117,-0.1047,9.8045,4,1,8,8,-1
1771240785.69533,22.2797,21.6142,-1.9598,0.002711,0.00358,-0.751416,-0.659813,0.008,-0.0027,-0.0001,-0.00012,0.00119,-0.0005,0.024,-0.0777,9.8268,4,1,8,8,-1
1771240785.7424557,22.2796,21.6151,-1.9598,0.002746,0.003599,-0.751346,-0.659893,0.0108,-0.0018,-0.0004,-0.00186,0.00219,-0.00129,-0.0137,-0.0952,9.7955,4,1,8,8,-1
1771240785.792578,22.2796,21.6151,-1.9598,0.002746,0.003599,-0.751346,-0.659893,0.0108,-0.0018,-0.0004,-0.00122,0.00339,-0.00089,0.0263,-0.0795,9.8142,4,1,8,8,-1
1771240785.8452263,22.2796,21.6151,-1.9598,0.002746,0.003599,-0.751346,-0.659893,0.0108,-0.0018,-0.0004,0.00077,-0.00331,-0.00084,-0.0537,-0.0914,9.8096,4,1,8,8,-1
1771240785.8923578,22.2796,21.6151,-1.9598,0.002746,0.003599,-0.751346,-0.659893,0.0108,-0.0018,-0.0004,-0.00071,0.00398,-0.0008,-0.0134,-0.0734,9.8041,4,1,8,8,-1
1771240785.9451213,22.2796,21.6151,-1.9598,0.002746,0.003599,-0.751346,-0.659893,0.0108,-0.0018,-0.0004,0.00045,-0.00906,-0.00096,-0.495,0.0522,9.7282,4,1,8,8,-1
1771240785.996016,22.2795,21.6156,-1.9588,0.002787,0.003612,-0.751264,-0.659986,0.0032,-0.0007,-0.0013,-1e-05,0.01555,0.00018,0.2241,0.0147,9.8243,4,1,8,8,-1
1771240786.042683,22.2795,21.6156,-1.9588,0.002787,0.003612,-0.751264,-0.659986,0.0032,-0.0007,-0.0013,-0.00272,0.02063,0.00123,0.1745,-0.1355,9.6736,4,1,8,8,-1
1771240786.0967228,22.2795,21.6156,-1.9588,0.002787,0.003612,-0.751264,-0.659986,0.0032,-0.0007,-0.0013,0.00038,-0.00576,-5e-05,-0.1991,-0.0288,9.9487,4,1,8,8,-1
1771240786.147246,22.2795,21.6156,-1.9588,0.002787,0.003612,-0.751264,-0.659986,0.0032,-0.0007,-0.0013,0.0008,-0.00642,0.00039,-0.2747,-0.1638,9.7843,4,1,8,8,-1
1771240786.19435,22.2795,21.6156,-1.9588,0.002787,0.003612,-0.751264,-0.659986,0.0032,-0.0007,-0.0013,9e-05,0.00075,0.00017,-0.0054,-0.0972,9.849,4,1,8,8,-1
1771240786.2468042,22.2802,21.6083,-1.9584,0.00286,0.003564,-0.75122,-0.660036,-0.0424,0.0024,-0.0007,-0.00066,0.00222,0.00082,-0.0745,-0.0534,9.8049,4,1,8,8,-1
1771240786.2929626,22.2803,21.6061,-1.9584,0.002773,0.003609,-0.751228,-0.660028,-0.0443,0.0021,-0.0007,0.00267,-0.00625,-0.00074,0.0418,-0.1059,9.7961,4,1,8,8,-1
1771240786.3491075,22.2805,21.6038,-1.9585,0.002695,0.003653,-0.751237,-0.660017,-0.0466,0.0027,-0.0008,3e-05,-0.00121,0.00077,-0.0122,-0.0855,9.8197,4,1,8,8,-1
1771240786.3936925,22.2806,21.6014,-1.9585,0.002717,0.003644,-0.751247,-0.660005,-0.0487,0.0028,-0.0005,-0.00018,-0.00118,0.00054,-0.0553,-0.0917,9.7878,4,1,8,8,-1
1771240786.4482973,22.2808,21.599,-1.9585,0.002706,0.003665,-0.751259,-0.659992,-0.0492,0.0025,-0.0008,-0.00081,-0.00095,0.00077,-0.0041,-0.1091,9.8069,4,1,8,8,-1
1771240786.494105,22.281,21.5965,-1.9586,0.002687,0.003676,-0.751275,-0.659974,-0.05,0.0022,-0.0009,-0.00021,-0.00141,0.00045,-0.0063,-0.0978,9.8026,4,1,8,8,-1
1771240786.5445607,22.2797,21.6157,-1.9582,0.002834,0.003522,-0.751224,-0.660032,-0.0183,-0.0,-0.0016,-3e-05,-0.00101,0.00102,-0.0179,-0.0869,9.8105,4,1,8,8,-1
1771240786.6031823,22.2797,21.6157,-1.9582,0.002834,0.003522,-0.751224,-0.660032,-0.0183,-0.0,-0.0016,-0.0002,-0.00034,0.0005,0.0008,-0.0988,9.7877,4,1,8,8,-1
1771240786.6460295,22.2797,21.6157,-1.9582,0.002834,0.003522,-0.751224,-0.660032,-0.0183,-0.0,-0.0016,-0.00036,0.0046,0.00108,0.065,-0.1191,9.7777,4,1,8,8,-1
1771240786.6947138,22.2797,21.6157,-1.9582,0.002834,0.003522,-0.751224,-0.660032,-0.0183,-0.0,-0.0016,0.00124,0.00061,0.00056,0.053,-0.0606,9.7964,4,1,8,8,-1
1771240786.744795,22.2797,21.6157,-1.9582,0.002834,0.003522,-0.751224,-0.660032,-0.0183,-0.0,-0.0016,-0.00084,0.00113,0.001,0.1132,-0.0952,9.8512,4,1,8,8,-1
1771240786.7931705,22.2785,21.6183,-1.9571,0.00282,0.003503,-0.751308,-0.659936,-0.0064,-0.0003,-0.0004,-0.00051,0.00216,0.00105,0.0105,-0.0943,9.8784,4,1,8,8,-1
1771240786.8440855,22.2785,21.6183,-1.9571,0.00282,0.003503,-0.751308,-0.659936,-0.0064,-0.0003,-0.0004,0.00267,-0.00613,0.00064,-0.0253,-0.1499,9.7841,4,1,8,8,-1
1771240786.8934636,22.2785,21.6183,-1.9571,0.00282,0.003503,-0.751308,-0.659936,-0.0064,-0.0003,-0.0004,1e-05,-0.00174,0.00014,0.0856,-0.157,9.8364,4,1,8,8,-1
1771240786.9505646,22.2785,21.6183,-1.9571,0.00282,0.003503,-0.751308,-0.659936,-0.0064,-0.0003,-0.0004,-0.00139,0.00105,0.00126,0.0345,-0.1384,9.8227,4,1,8,8,-1
1771240787.000038,22.2785,21.6183,-1.9571,0.00282,0.003503,-0.751308,-0.659936,-0.0064,-0.0003,-0.0004,-0.00104,-0.00149,0.00093,0.0423,-0.1771,9.8279,4,1,8,8,-1
1771240787.0440967,22.2778,21.6195,-1.9571,0.002777,0.003487,-0.751396,-0.659837,0.0039,0.0011,-0.0004,-0.00184,0.00301,0.0003,0.0736,-0.1743,9.725,4,1,8,8,-1
1771240787.0930853,22.2778,21.6195,-1.9571,0.002777,0.003487,-0.751396,-0.659837,0.0039,0.0011,-0.0004,-0.0019,0.00225,0.00018,0.0852,-0.1316,9.8022,4,1,8,8,-1
1771240787.1504657,22.2778,21.6195,-1.9571,0.002777,0.003487,-0.751396,-0.659837,0.0039,0.0011,-0.0004,-0.00143,-0.00305,0.00018,0.0716,-0.0272,9.7689,4,1,8,8,-1
1771240787.2012184,22.2778,21.6195,-1.9571,0.002777,0.003487,-0.751396,-0.659837,0.0039,0.0011,-0.0004,0.00118,-0.0001,0.0006,0.1173,-0.125,9.774,4,1,8,8,-1
1771240787.2592735,22.2778,21.6195,-1.9571,0.002777,0.003487,-0.751396,-0.659837,0.0039,0.0011,-0.0004,0.00033,0.00029,0.00083,0.0062,-0.1229,9.7019,4,1,8,8,-1
1771240787.2930107,22.2778,21.6195,-1.9571,0.002777,0.003487,-0.751396,-0.659837,0.0039,0.0011,-0.0004,0.00118,-0.00142,-0.00142,-0.047,-0.0588,9.8458,4,1,8,8,-1
1771240787.348358,22.2782,21.6204,-1.9572,0.002712,0.003522,-0.751462,-0.659761,0.0099,-0.0025,-0.0008,0.00223,-0.0072,-0.00093,-0.0894,-0.0483,9.8202,4,1,8,8,-1
1771240787.3968651,22.2782,21.6204,-1.9572,0.002712,0.003522,-0.751462,-0.659761,0.0099,-0.0025,-0.0008,-0.00318,0.00207,-0.00048,0.0065,-0.0729,9.8499,4,1,8,8,-1
1771240787.4707217,22.2782,21.6204,-1.9572,0.002712,0.003522,-0.751462,-0.659761,0.0099,-0.0025,-0.0008,0.00015,0.00241,-0.00062,-0.0386,-0.0996,9.8475,4,1,8,8,-1
1771240787.50542,22.2782,21.6204,-1.9572,0.002712,0.003522,-0.751462,-0.659761,0.0099,-0.0025,-0.0008,0.00042,-0.00106,-0.0001,-0.0297,-0.1569,9.8185,4,1,8,8,-1
1771240787.556054,22.2782,21.6204,-1.9572,0.002712,0.003522,-0.751462,-0.659761,0.0099,-0.0025,-0.0008,0.00035,0.00415,0.00046,0.0339,-0.0659,9.7899,4,1,8,8,-1
1771240787.5970373,22.2785,21.6185,-1.9572,0.002683,0.003529,-0.751462,-0.659761,0.0038,-0.0004,0.0,0.00125,-0.00182,0.00011,0.0223,-0.0765,9.8201,4,1,8,8,-1
1771240787.6463244,22.2785,21.6185,-1.9572,0.002683,0.003529,-0.751462,-0.659761,0.0038,-0.0004,0.0,0.00112,-0.00032,-0.00046,0.0066,-0.07,9.8091,4,1,8,8,-1
1771240787.6948998,22.2785,21.6185,-1.9572,0.002683,0.003529,-0.751462,-0.659761,0.0038,-0.0004,0.0,0.00108,-0.00277,-0.00018,0.0029,-0.0533,9.8589,4,1,8,8,-1
1771240787.758801,22.2785,21.6185,-1.9572,0.002683,0.003529,-0.751462,-0.659761,0.0038,-0.0004,0.0,0.00043,-0.00592,-0.00023,0.0149,-0.1422,9.7818,4,1,8,8,-1
1771240787.7978113,22.2785,21.6185,-1.9572,0.002683,0.003529,-0.751462,-0.659761,0.0038,-0.0004,0.0,-0.00018,0.00403,0.00016,-0.0006,-0.1112,9.7896,4,1,8,8,-1
1771240787.8632984,22.279,21.6172,-1.9574,0.00277,0.00351,-0.751469,-0.659753,-0.0011,-0.001,-0.0003,-0.00112,0.0001,0.00021,0.0065,-0.0584,9.8141,4,1,8,8,-1
1771240787.911809,22.279,21.6172,-1.9574,0.00277,0.00351,-0.751469,-0.659753,-0.0011,-0.001,-0.0003,-0.00127,0.00341,0.00053,0.0076,-0.0951,9.8183,4,1,8,8,-1
1771240787.9453192,22.279,21.6172,-1.9574,0.00277,0.00351,-0.751469,-0.659753,-0.0011,-0.001,-0.0003,-0.00107,0.00127,0.00012,-0.0169,-0.0677,9.8089,4,1,8,8,-1
1771240787.9992056,22.279,21.6172,-1.9574,0.00277,0.00351,-0.751469,-0.659753,-0.0011,-0.001,-0.0003,0.00058,-0.00146,-0.0007,0.0176,-0.141,9.793,4,1,8,8,-1
1771240788.0495164,22.279,21.6172,-1.9574,0.00277,0.00351,-0.751469,-0.659753,-0.0011,-0.001,-0.0003,0.00159,-0.00484,0.00013,-0.0083,-0.0739,9.813,4,1,8,8,-1
1771240788.0956867,22.279,21.6172,-1.9574,0.00277,0.00351,-0.751469,-0.659753,-0.0011,-0.001,-0.0003,-0.00084,0.00388,0.00081,0.0285,-0.1378,9.8018,4,1,8,8,-1
1771240788.146567,22.279,21.6172,-1.9574,0.00277,0.00351,-0.751469,-0.659753,-0.0011,-0.001,-0.0003,0.00115,-0.00065,-0.00042,-0.0262,-0.0525,9.7997,4,1,8,8,-1
1771240788.252047,22.2795,21.6167,-1.9575,0.002721,0.003516,-0.751481,-0.65974,-0.0006,-0.001,-0.0001,-0.00137,-0.0004,-0.00029,-0.0461,-0.0423,9.8441,4,1,8,8,-1
1771240788.3017287,22.2795,21.6167,-1.9575,0.002721,0.003516,-0.751481,-0.65974,-0.0006,-0.001,-0.0001,0.00022,2e-05,0.00068,0.0631,-0.1504,9.7915,4,1,8,8,-1
1771240788.3428109,22.2795,21.6167,-1.9575,0.002721,0.003516,-0.751481,-0.65974,-0.0006,-0.001,-0.0001,0.00121,0.00034,0.00019,-0.048,-0.0397,9.8281,4,1,8,8,-1
1771240788.4038665,22.2802,21.615,-1.9574,0.002697,0.003551,-0.751476,-0.659745,-0.0013,-0.0023,-0.0013,-0.00101,0.00031,0.00039,0.0156,-0.099,9.7973,4,1,8,8,-1
1771240788.4487796,22.2802,21.615,-1.9574,0.002697,0.003551,-0.751476,-0.659745,-0.0013,-0.0023,-0.0013,-0.00318,0.00794,0.00062,0.0226,-0.1059,9.8134,4,1,8,8,-1
1771240788.5053644,22.2802,21.615,-1.9574,0.002697,0.003551,-0.751476,-0.659745,-0.0013,-0.0023,-0.0013,-0.00057,-0.00345,-0.00073,-0.0279,-0.0586,9.8118,4,1,8,8,-1
1771240788.5514379,22.2802,21.615,-1.9574,0.002697,0.003551,-0.751476,-0.659745,-0.0013,-0.0023,-0.0013,-0.0015,0.00563,0.00028,0.0327,-0.1159,9.7907,4,1,8,8,-1
1771240788.5978284,22.2802,21.615,-1.9574,0.002697,0.003551,-0.751476,-0.659745,-0.0013,-0.0023,-0.0013,-0.00034,-0.00109,-6e-05,-0.0089,-0.0528,9.8182,4,1,8,8,-1
1771240788.6447556,22.2805,21.6139,-1.9574,0.002826,0.003543,-0.751476,-0.659745,-0.0002,-0.0017,0.0,6e-05,0.00146,0.00026,-0.008,-0.1315,9.8023,4,1,8,8,-1
1771240788.6959121,22.2805,21.6139,-1.9574,0.002826,0.003543,-0.751476,-0.659745,-0.0002,-0.0017,0.0,0.00089,-0.00062,0.0,-0.03,-0.0822,9.823,4,1,8,8,-1
1771240788.7435193,22.2805,21.6139,-1.9574,0.002826,0.003543,-0.751476,-0.659745,-0.0002,-0.0017,0.0,-0.0012,0.00178,0.00027,0.0609,-0.0607,9.8878,4,1,8,8,-1
1771240788.7956831,22.2805,21.6139,-1.9574,0.002826,0.003543,-0.751476,-0.659745,-0.0002,-0.0017,0.0,-0.00049,0.00038,-0.00023,0.0949,-0.0631,9.8713,4,1,8,8,-1
1771240788.8477578,22.2805,21.6139,-1.9574,0.002826,0.003543,-0.751476,-0.659745,-0.0002,-0.0017,0.0,0.00077,-0.00111,-0.00045,-0.0696,-0.1183,9.7652,4,1,8,8,-1
1771240788.893876,22.2805,21.6139,-1.9574,0.002826,0.003543,-0.751476,-0.659745,-0.0002,-0.0017,0.0,-0.00044,-0.00216,-0.00048,-0.1388,-0.0844,9.7292,4,1,8,8,-1
1771240788.9430318,22.281,21.6125,-1.9578,0.002878,0.003563,-0.751467,-0.659755,-0.0024,-0.0031,-0.0003,0.00025,-0.00123,0.00113,0.0161,-0.0855,9.8284,4,1,8,8,-1
1771240788.9995918,22.281,21.6125,-1.9578,0.002878,0.003563,-0.751467,-0.659755,-0.0024,-0.0031,-0.0003,0.00268,-0.00097,2e-05,0.0805,-0.0646,9.8498,4,1,8,8,-1
1771240789.0429463,22.281,21.6125,-1.9578,0.002878,0.003563,-0.751467,-0.659755,-0.0024,-0.0031,-0.0003,0.00095,-0.00533,-0.00099,0.0062,-0.0477,9.816,4,1,8,8,-1
1771240789.1018574,22.281,21.6125,-1.9578,0.002878,0.003563,-0.751467,-0.659755,-0.0024,-0.0031,-0.0003,0.00104,0.00071,-0.00025,-0.0166,-0.0506,9.7538,4,1,8,8,-1
1771240789.142425,22.281,21.6125,-1.9578,0.002878,0.003563,-0.751467,-0.659755,-0.0024,-0.0031,-0.0003,-0.00283,-0.00073,-0.00018,-0.0437,-0.0969,9.8105,4,1,8,8,-1
1771240789.195678,22.2806,21.6118,-1.9581,0.002875,0.00362,-0.751465,-0.659756,0.0009,-0.0003,0.001,0.00052,0.00032,0.00035,0.0357,-0.1509,9.8175,4,1,8,8,-1
1771240789.2423537,22.2806,21.6118,-1.9581,0.002875,0.00362,-0.751465,-0.659756,0.0009,-0.0003,0.001,-0.00126,0.0016,0.00035,0.0086,-0.0713,9.832,4,1,8,8,-1
1771240789.293998,22.2806,21.6118,-1.9581,0.002875,0.00362,-0.751465,-0.659756,0.0009,-0.0003,0.001,0.00073,0.00194,0.0006,0.0142,-0.1252,9.8056,4,1,8,8,-1
1771240789.342814,22.2806,21.6118,-1.9581,0.002875,0.00362,-0.751465,-0.659756,0.0009,-0.0003,0.001,0.00106,0.00061,-0.00043,-0.0194,-0.0505,9.8023,4,1,8,8,-1
1771240789.3969688,22.2806,21.6118,-1.9581,0.002875,0.00362,-0.751465,-0.659756,0.0009,-0.0003,0.001,-0.00124,-0.00034,0.00025,-0.0075,-0.096,9.8067,4,1,8,8,-1
1771240789.442723,22.2806,21.6118,-1.9581,0.002875,0.00362,-0.751465,-0.659756,0.0009,-0.0003,0.001,0.00083,0.00167,0.00024,0.0194,-0.1128,9.8134,4,1,8,8,-1
1771240789.4996655,22.2811,21.611,-1.9587,0.002875,0.003644,-0.751458,-0.659765,-0.0011,-0.0017,-0.0002,0.00063,-0.00258,-0.00036,0.0086,-0.0911,9.8107,4,1,8,8,-1
1771240789.5428681,22.2811,21.611,-1.9587,0.002875,0.003644,-0.751458,-0.659765,-0.0011,-0.0017,-0.0002,0.00091,0.00293,-0.00025,0.0143,-0.1162,9.8117,4,1,8,8,-1
1771240789.6043968,22.2811,21.611,-1.9587,0.002875,0.003644,-0.751458,-0.659765,-0.0011,-0.0017,-0.0002,0.00102,0.001,3e-05,0.0166,-0.0501,9.7902,4,1,8,8,-1
1771240789.643903,22.2811,21.611,-1.9587,0.002875,0.003644,-0.751458,-0.659765,-0.0011,-0.0017,-0.0002,-0.00071,-0.00164,0.00013,-0.009,-0.1203,9.7928,4,1,8,8,-1
1771240789.7062638,22.2811,21.611,-1.9587,0.002875,0.003644,-0.751458,-0.659765,-0.0011,-0.0017,-0.0002,0.0016,0.00044,0.00016,-0.0213,-0.081,9.8037,4,1,8,8,-1
1771240789.7426016,22.2811,21.611,-1.9587,0.002875,0.003644,-0.751458,-0.659765,-0.0011,-0.0017,-0.0002,0.0001,-0.00068,0.00059,-0.011,-0.1073,9.8179,4,1,8,8,-1
1771240789.7923388,22.2803,21.611,-1.9585,0.002876,0.003592,-0.751443,-0.659782,-0.0003,-0.0013,-0.0005,-0.00062,0.00481,0.00031,-0.0193,-0.1063,9.7972,4,1,8,8,-1
1771240789.8421588,22.2803,21.611,-1.9585,0.002876,0.003592,-0.751443,-0.659782,-0.0003,-0.0013,-0.0005,0.00102,-0.00186,-0.00049,0.0097,-0.0704,9.8021,4,1,8,8,-1
1771240789.8948264,22.2803,21.611,-1.9585,0.002876,0.003592,-0.751443,-0.659782,-0.0003,-0.0013,-0.0005,4e-05,-0.00133,-0.00017,0.0225,-0.0719,9.8031,4,1,8,8,-1
1771240789.9427378,22.2803,21.611,-1.9585,0.002876,0.003592,-0.751443,-0.659782,-0.0003,-0.0013,-0.0005,-0.00024,1e-05,0.00026,-0.0063,-0.0858,9.8144,4,1,8,8,-1
1771240789.9925985,22.2803,21.611,-1.9585,0.002876,0.003592,-0.751443,-0.659782,-0.0003,-0.0013,-0.0005,0.00038,0.0008,0.00027,-0.0053,-0.0961,9.8085,4,1,8,8,-1
1771240790.0445545,22.2799,21.6111,-1.9584,0.002868,0.003532,-0.751438,-0.659788,-0.0013,-0.0019,-0.0004,-0.00306,0.00643,0.00017,-0.009,-0.0978,9.8054,4,1,8,8,-1
1771240790.0936325,22.2799,21.6111,-1.9584,0.002868,0.003532,-0.751438,-0.659788,-0.0013,-0.0019,-0.0004,0.00077,-0.0017,0.00034,0.0008,-0.1011,9.8084,4,1,8,8,-1
1771240790.1468682,22.2799,21.6111,-1.9584,0.002868,0.003532,-0.751438,-0.659788,-0.0013,-0.0019,-0.0004,-0.0002,0.00175,0.00018,0.0043,-0.0931,9.8226,4,1,8,8,-1
1771240790.193034,22.2799,21.6111,-1.9584,0.002868,0.003532,-0.751438,-0.659788,-0.0013,-0.0019,-0.0004,0.00086,-0.0011,6e-05,0.0087,-0.0994,9.7857,4,1,8,8,-1
1771240790.241909,22.2799,21.6111,-1.9584,0.002868,0.003532,-0.751438,-0.659788,-0.0013,-0.0019,-0.0004,0.0007,-0.00202,-7e-05,-0.0152,-0.07,9.8198,4,1,8,8,-1
1771240790.2942848,22.2799,21.6111,-1.9584,0.002868,0.003532,-0.751438,-0.659788,-0.0013,-0.0019,-0.0004,0.00088,-0.00136,0.00024,0.0313,-0.1218,9.814,4,1,8,8,-1
1771240790.3456817,22.2798,21.6115,-1.9584,0.002826,0.003546,-0.751421,-0.659807,-0.0007,-0.001,-0.0003,0.00152,-0.00108,0.00046,-0.0251,-0.0794,9.8265,4,1,8,8,-1
1771240790.392814,22.2798,21.6115,-1.9584,0.002826,0.003546,-0.751421,-0.659807,-0.0007,-0.001,-0.0003,-0.00147,-0.00069,0.00037,-0.0396,-0.1201,9.7936,4,1,8,8,-1
1771240790.4470806,22.2798,21.6115,-1.9584,0.002826,0.003546,-0.751421,-0.659807,-0.0007,-0.001,-0.0003,-0.0006,-0.0007,0.0003,-0.0071,-0.0773,9.7892,4,1,8,8,-1
1771240790.4945881,22.2798,21.6115,-1.9584,0.002826,0.003546,-0.751421,-0.659807,-0.0007,-0.001,-0.0003,-0.00141,0.00338,-8e-05,0.0719,-0.1281,9.8259,4,1,8,8,-1
1771240790.5432122,22.2798,21.6115,-1.9584,0.002826,0.003546,-0.751421,-0.659807,-0.0007,-0.001,-0.0003,-0.00014,0.00086,-6e-05,0.2101,-0.0041,9.737,4,1,8,8,-1
1771240790.6011589,22.2793,21.6117,-1.9579,0.002844,0.003552,-0.751428,-0.6598,-0.0001,-0.0006,0.0004,-0.00125,-0.0035,-0.00063,0.1672,-0.0773,9.742,4,1,8,8,-1
1771240790.6537292,22.2793,21.6117,-1.9579,0.002844,0.003552,-0.751428,-0.6598,-0.0001,-0.0006,0.0004,6e-05,0.0008,-0.0008,0.354,-0.1442,9.8098,4,1,8,8,-1
1771240790.699114,22.2793,21.6117,-1.9579,0.002844,0.003552,-0.751428,-0.6598,-0.0001,-0.0006,0.0004,0.00034,-0.00202,-0.00192,0.283,-0.0626,9.781,4,1,8,8,-1
1771240790.7471285,22.2793,21.6117,-1.9579,0.002844,0.003552,-0.751428,-0.6598,-0.0001,-0.0006,0.0004,-0.00032,-0.00147,-0.00246,0.2814,-0.1059,9.844,4,1,8,8,-1
1771240790.8001735,22.2793,21.6117,-1.9579,0.002844,0.003552,-0.751428,-0.6598,-0.0001,-0.0006,0.0004,0.00168,0.00012,-0.00298,0.3231,-0.1035,9.8001,4,1,8,8,-1
1771240790.8435366,22.2787,21.6249,-1.9582,0.002714,0.00372,-0.751246,-0.660006,0.0876,-0.0077,0.0005,-0.00038,0.00107,-0.00364,0.2961,-0.0829,9.8386,4,1,8,8,-1
1771240790.8927581,22.2785,21.6297,-1.9581,0.002798,0.003653,-0.751198,-0.660061,0.1015,-0.008,0.0015,-0.00078,0.00746,-0.00266,0.2667,-0.0725,9.7956,4,1,8,8,-1
1771240790.9430904,22.2782,21.6349,-1.9581,0.002805,0.003661,-0.751134,-0.660134,0.1101,-0.0087,0.0017,-0.00026,-0.00233,-0.00424,0.1763,-0.0945,9.8322,4,1,8,8,-1
1771240790.99266,22.2779,21.6407,-1.958,0.002848,0.003636,-0.751064,-0.660213,0.1202,-0.0086,0.0011,-0.00158,0.00549,-0.00431,0.1461,-0.0909,9.7181,4,1,8,8,-1
1771240791.0443141,22.2776,21.6469,-1.9579,0.002848,0.003647,-0.750984,-0.660304,0.1267,-0.0103,0.0011,-0.00068,-0.00051,-0.00493,0.1718,-0.1117,9.8792,4,1,8,8,-1
1771240791.0921087,22.2773,21.6534,-1.9578,0.002876,0.003647,-0.750899,-0.660401,0.1326,-0.0104,0.0008,-0.00139,-0.0016,-0.00541,0.044,-0.0904,9.7314,4,1,8,8,-1
1771240791.1426322,22.2772,21.6444,-1.9586,0.002747,0.003739,-0.750784,-0.660531,0.1133,-0.0089,0.0012,0.00178,0.00034,-0.00537,0.2145,-0.1265,9.85,4,1,8,8,-1
1771240791.199702,22.2769,21.6502,-1.9585,0.002764,0.003692,-0.7507,-0.660627,0.1187,-0.0089,0.0006,0.00156,-0.00118,-0.00527,0.0881,-0.0981,9.8101,4,1,8,8,-1
1771240791.2531407,22.2765,21.6563,-1.9585,0.002715,0.003715,-0.750606,-0.660734,0.1243,-0.0085,0.0021,0.00086,0.00085,-0.00524,0.162,-0.0675,9.8512,4,1,8,8,-1
1771240791.2971606,22.2762,21.6627,-1.9583,0.002701,0.003735,-0.750505,-0.660848,0.1298,-0.009,0.0013,0.00028,-0.00513,-0.00662,0.1207,-0.0958,9.7865,4,1,8,8,-1
1771240791.3535979,22.2758,21.6693,-1.9583,0.002708,0.003709,-0.750399,-0.66097,0.1355,-0.0098,0.0013,0.00079,0.00439,-0.00659,0.097,-0.1001,9.8219,4,1,8,8,-1
1771240791.396371,22.2766,21.6555,-1.9594,0.002638,0.003759,-0.750289,-0.661094,0.1042,-0.0067,-0.0015,-0.00087,-0.00288,-0.00542,0.0928,-0.0561,9.6541,4,1,8,8,-1
1771240791.4589658,22.2763,21.6608,-1.9594,0.00264,0.003773,-0.750184,-0.661213,0.1099,-0.008,-0.0008,0.0001,-0.00116,-0.00714,0.1674,-0.1017,9.913,4,1,8,8,-1
1771240791.495819,22.276,21.6665,-1.9595,0.002657,0.003737,-0.750076,-0.661336,0.1174,-0.009,-0.0017,0.00031,0.0031,-0.0066,0.1385,-0.0963,9.6731,4,1,8,8,-1
1771240791.5564728,22.2758,21.6725,-1.9596,0.002629,0.00376,-0.749947,-0.661482,0.1237,-0.0094,-0.0023,-0.00076,0.00137,-0.00802,0.1679,-0.0775,9.8633,4,1,8,8,-1
1771240791.5930886,22.2755,21.6789,-1.9597,0.0026,0.00378,-0.749817,-0.661629,0.1303,-0.0115,-0.0016,0.00124,-0.00152,-0.00917,0.1995,-0.1301,9.8722,4,1,8,8,-1
1771240791.649552,22.2773,21.6638,-1.9609,0.002575,0.003776,-0.749686,-0.661778,0.0993,-0.0105,-0.0039,0.00098,-0.00126,-0.008,0.1459,-0.075,9.8774,4,1,8,8,-1
1771240791.693904,22.2772,21.669,-1.9611,0.002533,0.003801,-0.749551,-0.661931,0.1065,-0.0103,-0.0031,-0.00076,0.00331,-0.00742,0.1613,-0.14,9.8322,4,1,8,8,-1
1771240791.7513285,22.2771,21.6745,-1.9612,0.002513,0.003814,-0.749408,-0.662093,0.1111,-0.013,-0.0035,0.00101,-0.00115,-0.00859,0.0785,-0.085,9.7748,4,1,8,8,-1
1771240791.7926543,22.2771,21.6802,-1.9614,0.002523,0.003798,-0.74926,-0.66226,0.1181,-0.0132,-0.0042,-0.0001,-0.00107,-0.00918,0.1207,-0.0446,9.7531,4,1,8,8,-1
1771240791.854447,22.277,21.6864,-1.9616,0.002523,0.003795,-0.749108,-0.662432,0.1246,-0.0139,-0.0053,-0.00013,0.00089,-0.0096,0.1335,-0.0881,9.7592,4,1,8,8,-1
1771240791.89894,22.277,21.6928,-1.9618,0.002496,0.0038,-0.748952,-0.662608,0.1305,-0.0156,-0.0046,0.0004,-0.00421,-0.00999,0.134,-0.0828,9.8236,4,1,8,8,-1
1771240791.943296,22.278,21.6902,-1.9646,0.002452,0.003762,-0.748759,-0.662827,0.1317,-0.0168,-0.0079,-0.00109,-0.0049,-0.01178,0.2047,-0.1007,9.8209,4,1,8,8,-1
1771240791.9979794,22.278,21.6971,-1.9649,0.002502,0.003688,-0.748591,-0.663018,0.1407,-0.0158,-0.0071,0.00179,-0.00025,-0.01087,0.158,-0.0423,9.8062,4,1,8,8,-1
1771240792.0420468,22.2779,21.7043,-1.9653,0.002512,0.003693,-0.748419,-0.663211,0.1466,-0.0147,-0.0062,-0.00021,-0.00301,-0.01031,0.1432,-0.1002,9.7989,4,1,8,8,-1
1771240792.0929687,22.2778,21.7119,-1.9656,0.002536,0.003666,-0.748238,-0.663416,0.1552,-0.016,-0.0068,-0.00088,0.00817,-0.01117,0.2166,-0.1147,9.8211,4,1,8,8,-1
1771240792.1427808,22.2778,21.7198,-1.9659,0.002436,0.003719,-0.748052,-0.663625,0.1575,-0.0199,-0.0066,0.00125,-0.01226,-0.01158,0.0644,-0.186,9.8036,4,1,8,8,-1
1771240792.1953347,22.2812,21.7699,-1.9549,0.00239,0.003622,-0.74798,-0.663707,0.1892,-0.0277,-0.0018,0.00448,-0.0068,-0.01122,0.2154,-0.0811,9.7759,4,1,8,8,-1
1771240792.2429357,22.2814,21.7797,-1.955,0.002392,0.003595,-0.747791,-0.66392,0.1997,-0.0258,-0.0021,0.00034,0.00973,-0.01136,0.223,-0.0746,9.8249,4,1,8,8,-1
1771240792.292199,22.2815,21.7899,-1.9551,0.002439,0.003499,-0.747592,-0.664145,0.2046,-0.0231,-0.0007,0.00167,0.00252,-0.01323,0.1523,-0.0171,9.8063,4,1,8,8,-1
1771240792.3425252,22.2814,21.8004,-1.9551,0.002457,0.003479,-0.747378,-0.664385,0.2106,-0.0222,-0.001,0.00045,-0.00265,-0.01338,0.1057,-0.1253,9.7444,4,1,8,8,-1
1771240792.3923395,22.2814,21.8111,-1.9551,0.002328,0.003545,-0.747135,-0.664659,0.2165,-0.026,-0.0006,0.00263,-0.00892,-0.01584,0.2262,-0.1988,9.8791,4,1,8,8,-1
1771240792.4431293,22.2766,21.8975,-1.9452,0.002368,0.003441,-0.746916,-0.664906,0.2916,-0.0312,0.0047,0.00206,-0.00665,-0.01541,0.1539,-0.1399,9.737,4,1,8,8,-1
1771240792.4924943,22.2764,21.9125,-1.945,0.002372,0.003396,-0.746645,-0.66521,0.304,-0.0314,0.0041,-0.00147,0.01332,-0.01508,0.2993,-0.169,9.7683,4,1,8,8,-1
1771240792.544589,22.2762,21.9279,-1.9447,0.002499,0.003307,-0.746416,-0.665467,0.309,-0.0282,0.0049,-0.00076,-0.00621,-0.01116,-0.0227,-0.0725,9.743,4,1,8,8,-1
1771240792.6309545,22.2758,21.9436,-1.9445,0.002452,0.003331,-0.746191,-0.665719,0.3183,-0.0299,0.0049,-0.00022,0.0117,-0.01419,0.2324,-0.2296,9.8112,4,1,8,8,-1
1771240792.6429935,22.2756,21.9597,-1.9442,0.002432,0.003325,-0.745908,-0.666036,0.3235,-0.0323,0.0048,0.00046,-0.00343,-0.01896,0.1868,-0.2255,9.8268,4,1,8,8,-1
1771240792.6930504,22.2754,21.9761,-1.9439,0.002391,0.00336,-0.745592,-0.66639,0.3306,-0.0326,0.0046,-0.00068,-0.00209,-0.01898,0.1059,-0.1246,9.7551,4,1,8,8,-1
1771240792.7425077,22.2784,22.0298,-1.9394,0.002345,0.00338,-0.745359,-0.666651,0.3672,-0.0399,0.0087,0.00259,-0.00123,-0.01733,0.2576,-0.1674,9.7961,4,1,8,8,-1
1771240792.792745,22.2784,22.0485,-1.939,0.002548,0.003201,-0.7451,-0.66694,0.3767,-0.0404,0.0086,-0.00123,0.00903,-0.01556,0.116,-0.0625,9.8238,4,1,8,8,-1
1771240792.8425388,22.2784,22.0676,-1.9386,0.002535,0.003201,-0.744818,-0.667255,0.3815,-0.0426,0.0086,0.00098,-0.00321,-0.01735,0.1167,-0.1818,9.8031,4,1,8,8,-1
1771240792.922008,22.2785,22.087,-1.9381,0.002503,0.003168,-0.744504,-0.667606,0.3907,-0.0455,0.008,0.00202,0.00199,-0.01935,0.1791,-0.0773,9.8204,4,1,8,8,-1
1771240792.9476104,22.2786,22.1069,-1.9377,0.002479,0.003144,-0.744172,-0.667976,0.4,-0.0428,0.0089,-2e-05,-0.00046,-0.01918,0.1785,-0.0145,9.849,4,1,8,8,-1
1771240792.9965096,22.2808,22.1397,-1.9416,0.002472,0.003142,-0.743889,-0.668291,0.417,-0.0453,0.0036,0.00157,0.00062,-0.01856,0.1998,-0.1268,9.7837,4,1,8,8,-1
1771240793.042387,22.2808,22.161,-1.9414,0.002594,0.003052,-0.743574,-0.668642,0.4266,-0.0448,0.0034,-0.00261,0.00651,-0.01912,0.1321,-0.0637,9.8054,4,1,8,8,-1
1771240793.094196,22.2809,22.1826,-1.9412,0.002561,0.003077,-0.743237,-0.669016,0.4341,-0.0461,0.0039,-0.00035,0.00384,-0.01998,0.211,-0.1048,9.8237,4,1,8,8,-1
1771240793.1430876,22.281,22.2045,-1.9409,0.002476,0.003091,-0.742905,-0.669385,0.44,-0.0496,0.0048,0.00246,-0.00697,-0.01978,0.1634,-0.1383,9.8035,4,1,8,8,-1
1771240793.192695,22.2812,22.227,-1.9407,0.002468,0.003028,-0.742562,-0.669766,0.4513,-0.0494,0.004,0.00165,-0.00071,-0.02021,0.1437,-0.0872,9.8334,4,1,8,8,-1
1771240793.2439735,22.2753,22.2474,-1.9409,0.002423,0.003081,-0.742236,-0.670127,0.458,-0.0423,0.0031,0.00043,0.00538,-0.02218,0.3043,-0.1104,9.7423,4,1,8,8,-1
1771240793.2970035,22.2752,22.2705,-1.9407,0.002353,0.003063,-0.741863,-0.67054,0.4641,-0.0464,0.0023,0.00347,-0.00521,-0.02339,0.1805,-0.1827,9.8031,4,1,8,8,-1
1771240793.343145,22.2752,22.2941,-1.9406,0.002346,0.002992,-0.7415,-0.670942,0.4758,-0.0463,0.0027,0.00391,0.00665,-0.02059,0.2885,-0.0907,9.8135,4,1,8,8,-1
1771240793.3999617,22.2752,22.3182,-1.9404,0.002314,0.002935,-0.741146,-0.671333,0.4841,-0.0454,0.0034,0.00067,0.00257,-0.02098,0.2384,-0.0451,9.8397,4,1,8,8,-1
1771240793.4425561,22.275,22.3428,-1.9402,0.002419,0.002848,-0.740772,-0.671747,0.4932,-0.0424,0.0051,-0.00229,0.00115,-0.02245,0.0567,0.0155,9.7946,4,1,8,8,-1
1771240793.502335,22.2749,22.3677,-1.9399,0.002269,0.00296,-0.740364,-0.672195,0.5007,-0.0491,0.0051,0.00306,-0.00207,-0.02477,0.225,-0.1898,9.7916,4,1,8,8,-1
1771240793.5483944,22.2708,22.3851,-1.9389,0.002234,0.002869,-0.739966,-0.672635,0.5049,-0.0455,0.0045,0.00318,0.00165,-0.02626,0.1217,-0.0397,9.7947,4,1,8,8,-1
1771240793.596185,22.2707,22.4106,-1.9386,0.002275,0.002789,-0.73955,-0.673092,0.5109,-0.0431,0.0063,0.00106,0.00918,-0.0237,0.1639,0.0256,9.8484,4,1,8,8,-1
1771240793.6424682,22.2705,22.4363,-1.9382,0.002264,0.002792,-0.739157,-0.673523,0.5145,-0.0441,0.0069,0.00018,-0.00353,-0.02348,0.0838,-0.1114,9.7935,4,1,8,8,-1
1771240793.6977003,22.2704,22.4623,-1.9379,0.00227,0.002741,-0.73874,-0.673981,0.5227,-0.0481,0.0055,0.00305,0.00669,-0.02561,0.1308,-0.2262,9.7316,4,1,8,8,-1
1771240793.7433627,22.2705,22.4887,-1.9376,0.002195,0.00269,-0.738284,-0.674482,0.5289,-0.0485,0.0069,0.00332,0.00031,-0.02769,0.1927,-0.0095,9.8621,4,1,8,8,-1
1771240793.8019054,22.2766,22.5196,-1.9359,0.002122,0.00272,-0.737841,-0.674966,0.5327,-0.0491,0.0095,0.0011,-0.00502,-0.02676,0.0533,0.035,9.8185,4,1,8,8,-1
1771240793.8435152,22.2768,22.5465,-1.9354,0.002167,0.002637,-0.737403,-0.675445,0.5364,-0.0501,0.0103,0.00127,0.00178,-0.02464,-0.0952,-0.0422,9.8403,4,1,8,8,-1
1771240793.9059825,22.277,22.5735,-1.9348,0.002113,0.002671,-0.736975,-0.675911,0.5378,-0.0517,0.0117,0.00093,-0.0043,-0.02655,0.0669,-0.151,9.8156,4,1,8,8,-1
1771240793.9433784,22.2773,22.6006,-1.9342,0.002129,0.002627,-0.736537,-0.676389,0.5438,-0.0512,0.0112,0.00031,0.00528,-0.02548,0.1763,-0.0368,9.7396,4,1,8,8,-1
1771240794.003446,22.2775,22.6281,-1.9336,0.002246,0.002572,-0.73608,-0.676886,0.5509,-0.0488,0.0105,-0.00426,0.01599,-0.02731,0.0309,0.0003,9.8253,4,1,8,8,-1
1771240794.0489278,22.2776,22.6556,-1.933,0.002259,0.002695,-0.735607,-0.677399,0.5447,-0.0474,0.014,-0.00566,-0.01159,-0.02852,-0.0454,-0.1283,9.8394,4,1,8,8,-1
1771240794.0922928,22.2778,22.6832,-1.9323,0.002261,0.00274,-0.735146,-0.6779,0.5568,-0.0482,0.0099,-0.00012,0.00117,-0.02497,0.1565,-0.1204,9.7437,4,1,8,8,-1
1771240794.1435897,22.2816,22.7102,-1.9341,0.002252,0.00281,-0.734755,-0.678324,0.5634,-0.0504,0.0066,-0.00045,0.00645,-0.02518,0.296,-0.1891,9.7939,4,1,8,8,-1
1771240794.1933398,22.2822,22.7386,-1.9338,0.002279,0.002751,-0.734313,-0.678801,0.5686,-0.0593,0.0057,0.00237,0.00074,-0.02856,0.0641,-0.1018,9.7881,4,1,8,8,-1
1771240794.2433095,22.283,22.7672,-1.9334,0.00233,0.002704,-0.733809,-0.679346,0.5692,-0.0566,0.0096,-0.0021,-0.00181,-0.03021,-0.0599,0.0224,9.9154,4,1,8,8,-1
1771240794.29813,22.2836,22.7958,-1.9328,0.002246,0.002806,-0.733309,-0.679887,0.5703,-0.0546,0.0121,0.00049,-0.00238,-0.0287,0.1078,-0.1257,9.8396,4,1,8,8,-1
1771240794.3422835,22.2924,22.8195,-1.9323,0.002273,0.002679,-0.732906,-0.680321,0.5724,-0.0624,0.0108,0.00277,-0.00898,-0.02651,0.0151,-0.0774,9.7844,4,1,8,8,-1
1771240794.3961513,22.2934,22.8484,-1.9318,0.002412,0.002632,-0.732448,-0.680814,0.5774,-0.058,0.0109,-0.00667,0.00755,-0.0251,-0.1344,0.0421,9.8968,4,1,8,8,-1
1771240794.4430585,22.2944,22.8774,-1.9312,0.002378,0.002739,-0.731983,-0.681313,0.5766,-0.0666,0.0117,-0.00091,-0.00478,-0.02755,0.0259,-0.3753,9.7835,4,1,8,8,-1
1771240794.4921277,22.2959,22.9066,-1.9306,0.002285,0.002611,-0.731502,-0.68183,0.5834,-0.0756,0.0081,0.00689,-0.00016,-0.02884,0.1673,-0.074,9.7046,4,1,8,8,-1
1771240794.5429518,22.2976,22.9361,-1.9302,0.002219,0.002537,-0.730996,-0.682373,0.5898,-0.0728,0.0079,0.00314,0.00538,-0.02787,0.1062,-0.228,9.8084,4,1,8,8,-1
1771240794.5932758,22.3076,22.9563,-1.9271,0.002188,0.002426,-0.730569,-0.682831,0.5859,-0.0761,0.0103,0.0046,-0.0082,-0.0288,0.0698,-0.1582,9.7491,4,1,8,8,-1
1771240794.6433864,22.3095,22.986,-1.9266,0.002245,0.002317,-0.730057,-0.683378,0.5921,-0.0771,0.0118,0.00131,0.00889,-0.03157,0.0858,-0.17,9.8956,4,1,8,8,-1
1771240794.6926713,22.3114,23.0157,-1.9259,0.002149,0.002337,-0.729524,-0.683948,0.592,-0.0759,0.012,0.00253,-0.01298,-0.03036,0.1379,-0.1535,9.7177,4,1,8,8,-1
1771240794.7458665,22.3133,23.0458,-1.9254,0.002188,0.002234,-0.728993,-0.684514,0.606,-0.075,0.0079,0.00156,0.01543,-0.0298,0.2253,-0.1222,9.7746,4,1,8,8,-1
1771240794.7922652,22.315,23.0763,-1.925,0.002275,0.002168,-0.728473,-0.685067,0.6039,-0.0691,0.0116,-0.00134,0.00642,-0.02958,-0.0539,-0.0466,9.9757,4,1,8,8,-1
1771240794.84626,22.3168,23.1066,-1.9243,0.002109,0.002358,-0.727998,-0.685572,0.6063,-0.0716,0.0108,-0.0002,-0.00519,-0.02951,0.2957,-0.0674,9.7133,4,1,8,8,-1
1771240794.8927162,22.3203,23.1347,-1.9198,0.002231,0.002299,-0.727511,-0.686089,0.6144,-0.0748,0.0121,0.00048,-0.00369,-0.0285,0.1113,-0.2712,9.8425,4,1,8,8,-1
1771240794.946738,22.3224,23.1657,-1.9192,0.002291,0.002189,-0.726974,-0.686657,0.6208,-0.0764,0.016,0.00165,0.01917,-0.03142,0.135,-0.1178,9.9426,4,1,8,8,-1
1771240794.9955533,22.3247,23.1968,-1.9183,0.0021,0.002211,-0.726466,-0.687196,0.6197,-0.0787,0.0175,0.0054,-0.00997,-0.03161,0.2747,-0.0012,9.8052,4,1,8,8,-1
1771240795.0427723,22.3269,23.2283,-1.9175,0.00204,0.002125,-0.725979,-0.68771,0.6317,-0.0787,0.0133,0.00332,-0.00475,-0.02738,0.1887,-0.0259,9.7548,4,1,8,8,-1
1771240795.0925455,22.3293,23.2603,-1.9169,0.002078,0.001948,-0.725469,-0.688249,0.6362,-0.0805,0.0133,0.00431,0.00588,-0.02894,-0.0728,-0.1166,9.8383,4,1,8,8,-1
1771240795.1422443,22.3239,23.3028,-1.921,0.002115,0.00182,-0.724933,-0.688814,0.6429,-0.0751,0.0091,0.00329,-0.00669,-0.03183,-0.1442,0.1069,9.8301,4,1,8,8,-1
1771240795.1921842,22.326,23.3352,-1.9205,0.001958,0.00191,-0.724363,-0.689413,0.6503,-0.0763,0.0081,0.0014,0.0026,-0.03394,0.2031,-0.1817,9.7875,4,1,8,8,-1
1771240795.2445228,22.3283,23.368,-1.9201,0.001965,0.001792,-0.723786,-0.69002,0.6564,-0.0775,0.0094,0.00336,0.00784,-0.03188,0.1304,-0.084,9.845,4,1,8,8,-1
1771240795.294498,22.3304,23.4011,-1.9196,0.001947,0.001768,-0.723257,-0.690574,0.6629,-0.0687,0.009,0.00116,0.00343,-0.03076,0.2387,-0.0461,9.7668,4,1,8,8,-1
1771240795.3496356,22.3324,23.4345,-1.9192,0.002009,0.001725,-0.722728,-0.691128,0.6688,-0.0701,0.0069,0.00025,0.00085,-0.03288,0.176,-0.255,9.7746,4,1,8,8,-1
1771240795.3940861,22.3377,23.4586,-1.9185,0.002219,0.001562,-0.722149,-0.691733,0.6678,-0.0726,0.0072,0.002,0.00936,-0.03588,0.1084,-0.1156,9.7687,4,1,8,8,-1
1771240795.4484277,22.34,23.4921,-1.9181,0.002277,0.001558,-0.721551,-0.692356,0.6701,-0.0705,0.0083,-0.001,-0.00693,-0.0341,0.0492,-0.0981,9.7314,4,1,8,8,-1
1771240795.492477,22.3421,23.526,-1.9177,0.002378,0.001538,-0.720987,-0.692943,0.6766,-0.0682,0.0087,-0.00148,-0.00349,-0.03111,0.0212,-0.273,9.8409,4,1,8,8,-1
1771240795.5525503,22.3443,23.5602,-1.9173,0.002506,0.001431,-0.72044,-0.693512,0.6865,-0.0705,0.0095,0.0018,0.01223,-0.03083,0.1235,-0.2373,9.9394,4,1,8,8,-1
1771240795.5937955,22.3466,23.5946,-1.9169,0.002615,0.001348,-0.719858,-0.694115,0.6891,-0.0702,0.0097,-0.00119,0.00957,-0.03455,0.0207,-0.1692,9.7253,4,1,8,8,-1
1771240795.650572,22.349,23.6293,-1.9165,0.002603,0.001393,-0.719261,-0.694734,0.6952,-0.0715,0.008,-0.00149,0.00683,-0.03644,0.1968,-0.1809,9.8167,4,1,8,8,-1
1771240795.6940694,22.3459,23.665,-1.9187,0.002855,0.001275,-0.718648,-0.695367,0.6984,-0.0659,0.008,-0.00236,0.0059,-0.03397,-0.0431,-0.2815,9.8923,4,1,8,8,-1
1771240795.7544515,22.348,23.7001,-1.9184,0.002933,0.001305,-0.71804,-0.695995,0.7064,-0.0631,0.0058,-0.00469,0.021,-0.03525,0.2529,-0.2879,9.7369,4,1,8,8,-1
1771240795.796221,22.3502,23.7355,-1.9181,0.003006,0.001294,-0.717455,-0.696597,0.7037,-0.0642,0.0087,4e-05,-0.00893,-0.035,-0.0979,-0.1482,9.8938,4,1,8,8,-1
1771240795.8481116,22.3523,23.7709,-1.9177,0.003209,0.001242,-0.716866,-0.697203,0.7072,-0.0637,0.0107,-0.00525,-0.00166,-0.03123,-0.1661,-0.3388,9.8426,4,1,8,8,-1
1771240795.8932323,22.3548,23.8066,-1.9174,0.00316,0.001287,-0.716238,-0.697848,0.7193,-0.0712,0.0069,0.00188,0.01038,-0.03826,0.2882,-0.3684,9.8404,4,1,8,8,-1
1771240795.950691,22.3489,23.8542,-1.9266,0.003251,0.00122,-0.715621,-0.698481,0.7255,-0.0657,-0.0004,0.00109,-0.01672,-0.03357,-0.2914,-0.2722,9.8724,4,1,8,8,-1
1771240795.996816,22.3512,23.8908,-1.9267,0.00332,0.00115,-0.715008,-0.699107,0.7335,-0.059,-0.0,-9e-05,0.00408,-0.03054,0.0175,0.0063,9.8454,4,1,8,8,-1
1771240796.052875,22.3533,23.9277,-1.9269,0.003451,0.001146,-0.714424,-0.699703,0.7412,-0.0559,-0.0003,-0.00445,0.00944,-0.03434,0.1338,-0.0466,9.751,4,1,8,8,-1
1771240796.093235,22.3555,23.9649,-1.927,0.003787,0.000952,-0.713842,-0.700296,0.7468,-0.0588,0.0018,-0.00314,0.02512,-0.03391,0.1134,-0.1296,9.7375,4,1,8,8,-1
1771240796.147316,22.3578,24.0022,-1.9269,0.003892,0.000932,-0.71329,-0.700858,0.7417,-0.0585,0.0027,-0.00226,-0.00306,-0.03187,0.0449,-0.1589,9.7559,4,1,8,8,-1
1771240796.192502,22.3601,24.0395,-1.927,0.004103,0.000829,-0.712689,-0.701468,0.7439,-0.0541,0.0018,-0.00223,-0.00345,-0.03612,-0.0661,0.0591,9.8724,4,1,8,8,-1
1771240796.2425203,22.3623,24.0752,-1.9311,0.004075,0.000946,-0.712025,-0.702142,0.7465,-0.056,-0.0024,0.00242,-0.00922,-0.03647,0.1336,0.0679,9.8881,4,1,8,8,-1
1771240796.2940848,22.3647,24.1128,-1.9315,0.004146,0.000944,-0.711392,-0.702782,0.7552,-0.0524,-0.0074,-0.00198,-0.00191,-0.03413,-0.098,0.2482,9.7619,4,1,8,8,-1
1771240796.3433201,22.3671,24.1508,-1.9321,0.00425,0.000948,-0.71078,-0.703401,0.7651,-0.0578,-0.0081,-0.00013,0.01833,-0.0333,0.0745,-0.1538,9.8573,4,1,8,8,-1
1771240796.3930552,22.3697,24.1892,-1.9326,0.004162,0.001067,-0.710201,-0.703986,0.7685,-0.06,-0.0069,-0.00188,-0.00895,-0.0344,-0.0467,-0.1204,9.9145,4,1,8,8,-1
1771240796.4469543,22.3726,24.2277,-1.9331,0.004057,0.001154,-0.709606,-0.704586,0.776,-0.0699,-0.0071,0.00246,0.00388,-0.03431,0.2075,-0.3765,9.6401,4,1,8,8,-1
1771240796.4998934,22.3728,24.2649,-1.9337,0.003929,0.001178,-0.709007,-0.70519,0.7764,-0.0693,-0.007,0.00155,-0.01738,-0.0334,-0.0066,-0.2829,9.8013,4,1,8,8,-1
1771240796.5421677,22.3762,24.3038,-1.9341,0.003702,0.001139,-0.708415,-0.705785,0.7808,-0.0745,-0.0034,0.00895,0.00294,-0.03386,0.1967,-0.2848,9.8963,4,1,8,8,-1
1771240796.5959973,22.3795,24.3433,-1.9345,0.003866,0.000778,-0.707853,-0.706349,0.791,-0.0589,-0.0058,0.00131,-0.00678,-0.03058,-0.1091,0.1259,9.7921,4,1,8,8,-1
1771240796.6425729,22.3825,24.383,-1.935,0.003732,0.000957,-0.707215,-0.706989,0.802,-0.0619,-0.0099,2e-05,0.01621,-0.04142,0.5724,-0.2376,9.582,4,1,8,8,-1
1771240796.693307,22.3857,24.4233,-1.9357,0.003705,0.000903,-0.706545,-0.707658,0.8063,-0.0651,-0.0114,0.00387,-0.02242,-0.04101,0.254,-0.3717,9.7321,4,1,8,8,-1
1771240796.7443025,22.4005,24.4283,-1.931,0.00386,0.000638,-0.705755,-0.708445,0.787,-0.0728,-0.0073,0.0056,-0.00966,-0.0386,-0.3209,-0.0732,9.6694,4,1,7,8,-1
1771240796.7970188,22.4045,24.4677,-1.9314,0.00358,0.000809,-0.705078,-0.70912,0.7937,-0.0747,-0.0058,0.00308,-0.00074,-0.03709,0.1966,-0.2776,9.8782,4,1,7,8,-1
1771240796.852087,22.4088,24.5078,-1.9319,0.003562,0.000488,-0.704488,-0.709707,0.8022,-0.0864,-0.004,0.01305,0.00376,-0.031,-0.212,-0.4797,9.9224,4,1,7,8,-1
1771240796.8932042,22.4137,24.5478,-1.9321,0.003108,0.0004,-0.703949,-0.710244,0.8089,-0.0865,-0.0025,0.01527,0.0165,-0.02653,0.471,0.1465,9.6938,4,1,7,8,-1
1771240796.9453893,22.4178,24.5884,-1.9324,0.003193,-9.1e-05,-0.703586,-0.710603,0.8059,-0.0705,-0.0012,0.00548,-0.032,-0.02439,-0.3124,-0.1286,9.8579,4,1,7,8,-1
1771240796.9935663,22.4202,24.6254,-1.9318,0.003513,-0.000224,-0.702881,-0.711299,0.8187,-0.0652,-0.0003,-0.0013,0.01688,-0.04587,0.1894,-0.8138,9.6773,4,1,7,7,-1
1771240797.0421956,22.4239,24.6667,-1.9325,0.003868,-0.00035,-0.702074,-0.712093,0.847,-0.0475,-0.0163,-0.00859,0.06893,-0.04532,0.7051,0.1118,9.524,4,1,7,7,-1
1771240797.0928369,22.4269,24.7086,-1.9333,0.003852,-0.000152,-0.701471,-0.712688,0.8375,-0.0414,-0.0098,-0.0083,0.03559,-0.03541,0.5915,0.2031,9.8994,4,1,7,7,-1
1771240797.1455147,22.4295,24.7503,-1.9338,0.003985,7.5e-05,-0.700982,-0.713168,0.8265,-0.0359,0.0011,-0.0119,-0.05294,-0.02727,-0.2737,-0.4298,9.8571,4,1,7,7,-1
1771240797.199886,22.4325,24.792,-1.9339,0.003933,0.000371,-0.700463,-0.713677,0.835,-0.0468,0.0008,4e-05,-0.03864,-0.02947,-0.0981,-0.0439,9.718,4,1,7,7,-1
1771240797.2426515,22.4367,24.8342,-1.9341,0.004222,-0.000108,-0.699833,-0.714294,0.8508,-0.0692,0.0027,0.0128,0.01043,-0.03677,-0.0934,0.1064,9.9489,4,1,7,7,-1
1771240797.2966425,22.4367,24.8743,-1.9352,0.004264,-0.000267,-0.699215,-0.714899,0.8512,-0.0561,0.0002,0.00145,0.00993,-0.0326,-0.1214,0.6943,9.7146,4,1,7,7,-1
1771240797.3441262,22.4402,24.9168,-1.9355,0.004408,-0.000223,-0.698667,-0.715433,0.853,-0.0473,-0.0039,-0.00524,0.02516,-0.02939,0.0904,-0.0024,9.5668,4,1,7,7,-1
1771240797.3933086,22.4438,24.9593,-1.936,0.004298,-4.3e-05,-0.698134,-0.715954,0.8581,-0.0541,-0.006,-0.00104,0.01327,-0.03329,0.472,-0.185,9.7248,4,1,7,7,-1
1771240797.442269,22.4478,25.0022,-1.9364,0.004284,-0.000124,-0.697537,-0.716536,0.8606,-0.0601,-0.0035,0.00474,-0.02078,-0.03499,-0.0628,-0.2256,9.7774,4,1,7,7,-1
1771240797.4955502,22.4521,25.0453,-1.9367,0.004312,-0.000303,-0.696924,-0.717132,0.8607,-0.0653,0.0037,0.00721,-0.01927,-0.02846,-0.3645,-0.3618,9.9898,4,1,7,7,-1
1771240797.5463908,22.4513,25.0872,-1.9392,0.004275,-0.000498,-0.696311,-0.717727,0.8743,-0.0621,-0.0033,0.00968,0.03743,-0.03549,0.3944,0.0509,9.7159,4,1,7,7,-1
1771240797.602494,22.4559,25.1307,-1.9398,0.004128,-0.000613,-0.695779,-0.718244,0.8776,-0.0653,-0.0056,0.00452,0.02448,-0.03445,0.2011,0.0165,9.6854,4,1,7,7,-1
1771240797.6423626,22.4605,25.1744,-1.9403,0.004195,-0.000843,-0.695149,-0.718853,0.8768,-0.0627,-0.0028,0.00269,0.00401,-0.033,-0.0391,-0.007,9.9957,4,1,7,7,-1
1771240797.6994586,22.465,25.2181,-1.9407,0.004132,-0.000879,-0.694504,-0.719477,0.8826,-0.0498,-0.0029,0.00185,0.00981,-0.03427,0.1584,0.5274,9.6144,4,1,7,7,-1
1771240797.7422502,22.469,25.2623,-1.9411,0.004226,-0.000938,-0.693937,-0.720023,0.8897,-0.0458,-0.0017,-0.00385,0.0078,-0.03222,0.2007,0.1451,9.9293,4,1,7,7,-1
1771240797.7930548,22.4729,25.3068,-1.9415,0.004218,-0.000844,-0.69336,-0.720578,0.894,-0.0502,-0.0019,-0.00232,-0.0075,-0.02978,-0.0314,-0.3357,9.8312,4,1,7,7,-1
1771240797.842843,22.4771,25.3516,-1.942,0.004397,-0.00098,-0.692764,-0.72115,0.9019,-0.047,-0.0053,-0.00356,0.0128,-0.03157,-0.1029,0.0225,9.6723,4,1,7,7,-1
1771240797.899662,22.4767,25.3998,-1.945,0.004669,-0.001036,-0.692231,-0.72166,0.9092,-0.0373,-0.005,-0.00837,0.01674,-0.03163,0.1248,-0.2686,9.8684,4,1,7,7,-1
1771240797.942881,22.4805,25.4451,-1.9455,0.004852,-0.000949,-0.691673,-0.722194,0.913,-0.0386,-0.0044,-0.0089,0.01502,-0.0329,0.2892,-0.2446,9.7923,4,1,7,7,-1
1771240797.9974802,22.4846,25.4908,-1.9462,0.004826,-0.000845,-0.691103,-0.722739,0.9214,-0.0486,-0.0077,-0.00035,-0.01912,-0.03005,0.0378,-0.3422,9.6595,4,1,7,7,-1
1771240798.0442572,22.489,25.5371,-1.947,0.005028,-0.001072,-0.690519,-0.723296,0.9301,-0.0418,-0.0084,-0.00087,0.01326,-0.02789,-0.1154,-0.2179,9.8466,4,1,7,7,-1
1771240798.10131,22.4931,25.5833,-1.9477,0.00507,-0.000919,-0.689971,-0.723819,0.9294,-0.0324,-0.0045,-0.00687,0.00512,-0.0306,0.1004,-0.037,10.0076,4,1,7,7,-1
1771240798.1449904,22.4914,25.6297,-1.9494,0.005121,-0.000659,-0.689441,-0.724324,0.9366,-0.0344,-0.0064,-0.00647,0.01043,-0.0307,0.2292,-0.2882,9.7158,4,1,7,7,-1
1771240798.2078943,22.4955,25.6766,-1.95,0.005033,-0.000599,-0.688945,-0.724796,0.9491,-0.0373,-0.0053,-0.00049,0.01184,-0.02794,0.4622,-0.2514,9.8857,4,1,7,7,-1
1771240798.2471902,22.4995,25.724,-1.9506,0.005281,-0.000713,-0.688491,-0.725226,0.9506,-0.0254,-0.0033,-0.00748,-0.00724,-0.02322,-0.1172,-0.1458,9.7505,4,1,7,7,-1
1771240798.3000407,22.5032,25.7715,-1.9511,0.005398,-0.000546,-0.688029,-0.725663,0.954,-0.023,-0.0023,-0.00713,-0.00024,-0.02512,-0.095,-0.3709,9.767,4,1,7,7,-1
1771240798.3481083,22.5071,25.8192,-1.9516,0.005386,-0.000389,-0.687602,-0.726068,0.9582,-0.0247,-0.0032,-0.00485,-0.00291,-0.02469,0.0761,-0.0913,9.7869,4,1,7,7,-1
1771240798.398048,22.5031,25.8622,-1.9513,0.005482,-0.000374,-0.687182,-0.726465,0.9627,-0.0225,0.0004,-0.0021,-0.0016,-0.02263,-0.0364,-0.056,9.8073,4,1,7,7,-1
1771240798.4438672,22.507,25.9101,-1.9516,0.005518,-0.000316,-0.686749,-0.726873,0.9599,-0.0281,0.0027,-0.0017,-0.00627,-0.0231,-0.1408,-0.3766,9.8606,4,1,7,7,-1
1771240798.4950306,22.5113,25.9581,-1.9518,0.005401,-0.000198,-0.686323,-0.727276,0.9699,-0.0265,0.0043,-0.00068,0.02639,-0.02717,0.4297,0.119,9.7901,4,1,7,7,-1
1771240798.5501888,22.5157,26.0063,-1.9519,0.004846,0.000186,-0.685987,-0.727598,0.9641,-0.0394,-0.0001,0.01172,-0.06065,-0.01817,-0.1169,-0.6071,9.5135,4,1,7,7,-1
1771240798.5953746,22.5205,26.0552,-1.9525,0.00537,-0.000731,-0.685586,-0.727972,0.9902,-0.0282,-0.0049,0.00878,0.05188,-0.01604,-0.1507,0.285,9.7239,4,1,7,7,-1
1771240798.6434443,22.5193,26.101,-1.9529,0.004953,-0.000197,-0.685256,-0.728285,0.989,-0.0125,-0.0043,-0.00811,0.03182,-0.02397,0.9147,0.4109,9.6067,4,1,7,7,-1
1771240798.692303,22.5232,26.1504,-1.9536,0.004945,-6.5e-05,-0.68496,-0.728564,0.9927,-0.0208,-0.01,-0.00021,-0.01755,-0.01652,0.3657,-0.117,9.6302,4,1,7,7,-1
1771240798.7475667,22.5272,26.2,-1.9543,0.005071,-0.000184,-0.684602,-0.7289,0.9925,-0.0138,-0.0021,0.00122,-0.00671,-0.01845,-0.0583,-0.1346,10.0414,4,1,5,7,-1
1771240798.7926257,22.5311,26.2494,-1.9546,0.004841,0.000106,-0.684217,-0.729263,0.9929,-0.0139,-0.0,0.00095,-0.0287,-0.02343,-0.0728,0.0292,9.7289,4,1,5,7,-1
1771240798.844046,22.5356,26.2992,-1.9549,0.004772,6.8e-05,-0.683831,-0.729625,1.0028,-0.0328,-0.0005,0.00709,-0.01109,-0.01917,-0.1675,-0.1414,9.8493,4,1,5,7,-1
1771240798.892063,22.536,26.3458,-1.9581,0.004943,-0.000481,-0.683446,-0.729984,1.0151,-0.0366,-0.0051,0.00903,0.0193,-0.01536,-0.4059,-0.0765,9.7612,4,1,5,7,-1
1771240798.9428718,22.5407,26.3964,-1.9589,0.005124,-0.000757,-0.683127,-0.730281,1.0226,-0.0189,-0.0079,-0.00516,0.02974,-0.01973,0.1205,0.1444,9.8635,4,1,7,7,-1
1771240798.9950333,22.5447,26.4472,-1.9597,0.00512,-0.000504,-0.682849,-0.730541,1.0197,-0.0055,-0.0115,-0.00856,-0.01086,-0.01904,0.539,-0.0446,9.5048,4,1,7,7,-1
1771240799.0425546,22.5487,26.4985,-1.9609,0.005368,-0.000619,-0.682472,-0.730892,1.03,-0.0124,-0.0148,0.00038,-0.01247,-0.01934,-0.2746,-0.2955,9.7652,4,1,7,7,-1
1771240799.0947154,22.5528,26.5502,-1.962,0.005495,-0.000673,-0.682096,-0.731242,1.0374,-0.0029,-0.0135,-0.00269,-0.01863,-0.02009,-0.0092,0.2684,9.8879,4,1,7,7,-1
1771240799.1467087,22.5482,26.5958,-1.9684,0.0059,-0.000745,-0.681761,-0.731551,1.043,0.0037,-0.0105,-0.01065,0.02301,-0.01332,-0.0145,0.1256,9.928,4,1,7,7,-1
1771240799.1934645,22.552,26.6476,-1.9694,0.006127,-0.000625,-0.681586,-0.731712,1.041,-0.0051,-0.0067,-0.00495,0.0146,-0.01386,0.232,-0.222,10.0067,4,1,7,7,-1
1771240799.241877,22.5567,26.6998,-1.9701,0.006282,-0.000858,-0.68123,-0.732042,1.0536,-0.021,-0.0037,0.00726,0.00764,-0.02649,0.2636,-0.2159,9.7963,4,1,7,7,-1
1771240799.299228,22.5616,26.7523,-1.9708,0.005968,-0.000626,-0.68075,-0.732491,1.0535,-0.001,-0.0074,-0.00305,-0.03955,-0.03157,0.1641,0.7605,9.7775,4,1,7,7,-1
1771240799.3435445,22.5652,26.8054,-1.9718,0.006148,-0.000467,-0.680389,-0.732826,1.0575,0.0201,-0.008,-0.00936,-0.06641,-0.00899,-0.5886,0.6785,9.928,4,1,7,7,-1
1771240799.3930695,22.5681,26.8588,-1.9728,0.006496,-0.000237,-0.680174,-0.733022,1.0758,0.0252,-0.0128,-0.00973,-0.03031,-0.00684,-0.7491,0.322,9.849,4,1,7,7,-1
1771240799.4431226,22.5698,26.8971,-1.9762,0.006779,-0.000125,-0.679952,-0.733225,1.083,0.0041,-0.0114,-0.00893,0.02847,-0.01353,-0.1867,0.2867,10.0699,4,1,7,7,-1
1771240799.4936104,22.5741,26.951,-1.9771,0.006862,-4.2e-05,-0.679658,-0.733497,1.0837,-0.0115,-0.0061,-0.0041,0.01443,-0.01562,0.0201,-0.0842,9.7931,4,1,7,7,-1
1771240799.5454526,22.5789,27.005,-1.9778,0.006759,6.1e-05,-0.67936,-0.733774,1.0906,-0.0157,-0.0049,-0.00012,0.00364,-0.01498,0.2076,-0.1281,9.7735,4,1,7,7,-1
1771240799.5980814,22.5836,27.0595,-1.9786,0.006679,5.1e-05,-0.679183,-0.733938,1.0977,-0.0094,-0.008,0.00198,-0.01286,-0.00939,-0.0088,-0.1901,9.7576,4,1,7,7,-1
1771240799.647159,22.5884,27.1144,-1.9795,0.00674,-0.000185,-0.679065,-0.734048,1.1,-0.0117,-0.0072,0.00639,-0.01079,-0.00458,-0.3202,-0.3413,9.8052,4,1,7,7,-1
1771240799.6921005,22.5934,27.1692,-1.9804,0.006432,-0.000136,-0.678967,-0.734141,1.0992,-0.0172,-0.0084,0.01017,-0.01481,-0.0067,0.1179,-0.6122,9.7297,4,1,7,7,-1
1771240799.7463748,22.608,27.237,-1.9812,0.006137,-0.000377,-0.678883,-0.734221,1.1166,-0.0291,-0.0123,0.01442,-0.0092,-0.00338,0.1375,-0.0702,9.7922,4,1,7,7,-1
1771240799.7955883,22.6136,27.2929,-1.9823,0.005914,-0.000606,-0.678813,-0.734287,1.1251,-0.0155,-0.01,0.00956,-0.01271,-0.001,-0.2066,0.0546,9.9489,4,1,7,7,-1
1771240799.845794,22.6184,27.3492,-1.9832,0.005801,-0.000674,-0.678742,-0.734353,1.135,0.0055,-0.0067,0.00564,0.00015,-0.00025,-0.0864,0.1653,9.9954,4,1,7,7,-1
1771240799.8923438,22.6224,27.4059,-1.9841,0.005575,-0.000637,-0.678844,-0.734261,1.1443,0.016,-0.0076,0.0064,0.01174,0.00844,0.3021,0.4862,9.7599,4,1,7,7,-1
1771240799.94514,22.6257,27.4633,-1.985,0.005753,-0.000947,-0.679124,-0.734001,1.1505,0.0295,-0.0109,0.00011,-0.00044,0.0201,-0.3189,0.1584,9.6396,4,1,7,7,-1
1771240799.9922574,22.64,27.5468,-1.9844,0.005975,-0.001031,-0.679542,-0.733612,1.1696,0.0409,-0.0089,-0.00776,0.00121,0.02373,-0.3143,0.046,9.6945,4,1,7,7,-1
1771240800.0463252,22.6421,27.6055,-1.9854,0.006069,-0.000848,-0.679967,-0.733217,1.1822,0.0509,-0.0075,-0.00764,0.01242,0.02032,0.4609,0.0131,9.9873,4,1,7,7,-1
1771240800.0931487,22.6438,27.6648,-1.9864,0.00617,-0.000745,-0.680442,-0.732776,1.1884,0.0561,-0.0076,-0.0058,-0.00521,0.02531,0.2569,0.1748,9.8495,4,1,7,7,-1
1771240800.148515,22.6451,27.7246,-1.9874,0.006312,-0.000628,-0.680968,-0.732286,1.2011,0.0639,-0.0083,-0.00791,-0.00743,0.02947,0.1616,0.3003,10.0421,4,1,7,7,-1
1771240800.1962101,22.6462,27.7849,-1.9884,0.006461,-0.000467,-0.68158,-0.731715,1.2081,0.0648,-0.0068,-0.00796,0.0037,0.03229,0.329,-0.0179,9.7884,4,1,7,7,-1
1771240800.2629652,22.6476,27.8454,-1.9892,0.006555,-0.000508,-0.682227,-0.731111,1.2075,0.049,-0.0033,0.00141,-0.01148,0.03683,0.0277,-0.1186,9.6922,4,1,7,7,-1
1771240800.3018928,22.6572,27.9005,-1.988,0.00651,-0.000589,-0.682834,-0.730545,1.2168,0.0316,-0.0057,0.00483,0.01713,0.03287,0.3288,-0.1718,9.6803,4,1,7,7,-1
1771240800.3677993,22.6597,27.9616,-1.9889,0.006553,-0.000827,-0.683449,-0.729969,1.2235,0.0346,-0.0047,0.00264,-0.00179,0.03457,-0.005,0.2743,9.8821,4,1,7,7,-1
1771240800.394279,22.6618,28.023,-1.9897,0.006736,-0.001085,-0.684041,-0.729412,1.2273,0.0363,-0.0016,0.00446,0.00221,0.03556,-0.3969,0.1047,9.7394,4,1,7,7,-1
1771240800.44437,22.6636,28.0844,-1.9904,0.006861,-0.001266,-0.684607,-0.728879,1.2346,0.0489,-0.0005,-0.00246,0.02849,0.03233,0.1494,0.4995,9.837,4,1,7,7,-1
1771240800.493026,22.6648,28.1463,-1.9913,0.007109,-0.001453,-0.685232,-0.728288,1.2473,0.052,-0.004,-0.0018,0.05557,0.03259,0.5304,0.0787,9.624,4,1,7,7,-1
1771240800.5477755,22.6751,28.2117,-1.9862,0.006932,-0.001185,-0.685929,-0.727634,1.2337,0.049,0.0081,-0.00683,-0.03094,0.03294,0.146,0.2221,9.9282,4,1,7,7,-1
1771240800.592552,22.6769,28.2738,-1.9865,0.007052,-0.001308,-0.686523,-0.727073,1.2315,0.0313,0.0086,0.00957,-0.06831,0.03741,-0.7406,0.3132,9.7884,4,1,7,5,-1
1771240800.6419766,22.6791,28.336,-1.9869,0.006997,-0.001583,-0.687082,-0.726545,1.2463,0.0277,0.0078,0.0144,-0.03095,0.03797,-0.38,0.719,9.8744,4,1,7,5,-1
1771240800.6931915,22.6814,28.3988,-1.9874,0.006912,-0.00189,-0.687713,-0.725947,1.2653,0.0228,0.0044,0.01468,0.01326,0.03516,-0.4981,0.6167,9.9521,4,1,7,5,-1
1771240800.744308,22.6837,28.462,-1.9879,0.006742,-0.002137,-0.688345,-0.725349,1.27,0.0155,0.0076,0.01386,0.04137,0.03515,0.0723,0.415,9.845,4,1,7,5,-1
1771240800.7934604,22.6861,28.5251,-1.9881,0.006291,-0.002126,-0.688957,-0.724772,1.267,0.017,0.0096,0.00967,0.02027,0.03228,0.6366,0.212,9.7965,4,1,7,5,-1
1771240800.8448694,22.6963,28.5802,-1.9847,0.005847,-0.002081,-0.689613,-0.724152,1.2669,0.0209,0.0059,0.01135,-0.02156,0.03511,0.1611,0.3048,9.6873,4,1,7,5,-1
1771240800.894649,22.6981,28.6438,-1.9852,0.005535,-0.002098,-0.690289,-0.72351,1.2788,0.0266,0.0027,0.00844,-0.00855,0.03837,0.248,0.2335,9.7161,4,1,7,5,-1
1771240800.9443147,22.6995,28.7079,-1.9857,0.005403,-0.002219,-0.690993,-0.722838,1.2804,0.0309,0.0035,0.00519,-0.00908,0.04033,-0.3063,0.2701,9.7655,4,1,7,7,-1
1771240800.993329,22.7007,28.772,-1.9861,0.004904,-0.001914,-0.691698,-0.722168,1.283,0.0248,0.0031,0.00619,-0.0447,0.03942,-0.092,-0.2492,9.8095,4,1,7,7,-1
1771240801.0423374,22.7022,28.8367,-1.9868,0.004645,-0.002033,-0.692371,-0.721524,1.3031,0.0142,-0.0048,0.01372,-0.00033,0.03891,0.1511,-0.648,9.5866,4,1,7,7,-1
1771240801.093921,22.7046,28.8618,-1.9844,0.004559,-0.002354,-0.693073,-0.720849,1.2925,0.0281,-0.0005,0.00811,0.00413,0.0409,-0.0652,0.1273,9.9306,4,1,7,7,-1
1771240801.156843,22.7052,28.9264,-1.9848,0.004257,-0.002093,-0.693844,-0.720109,1.2899,0.0424,0.0065,-0.00312,-0.02046,0.04181,0.0006,-0.0587,9.9564,4,1,7,7,-1
1771240801.1932979,22.7053,28.9912,-1.985,0.004074,-0.001948,-0.694625,-0.719358,1.3015,0.0419,0.0084,0.00258,-0.0084,0.04328,0.2137,-0.1593,9.8856,4,1,7,7,-1
1771240801.2425954,22.705,29.0568,-1.9853,0.004325,-0.002122,-0.695362,-0.718643,1.3179,0.0556,0.0048,-0.00565,-0.01987,0.04332,0.1567,-0.0246,9.5777,4,1,7,7,-1
1771240801.2936878,22.7039,29.1234,-1.9858,0.00496,-0.002284,-0.696067,-0.717956,1.3335,0.0735,0.0082,-0.01437,0.02927,0.04018,-0.2067,0.2553,10.1384,4,1,7,7,-1
1771240801.343494,22.7057,29.1762,-1.9821,0.005102,-0.001924,-0.696868,-0.717179,1.3106,0.0685,0.0144,-0.01118,0.00842,0.04127,-0.0855,0.013,9.8248,4,1,7,7,-1
1771240801.3934164,22.7041,29.2419,-1.982,0.005453,-0.001914,-0.697667,-0.716399,1.3187,0.0671,0.0118,-0.01505,0.01008,0.04351,0.3764,0.0318,9.6564,4,1,7,7,-1
1771240801.4421353,22.7022,29.3082,-1.9823,0.005838,-0.001753,-0.698436,-0.715647,1.3307,0.0725,0.0082,-0.01466,0.00599,0.04231,0.1783,-0.1911,9.8553,4,1,7,7,-1
1771240801.4942317,22.7004,29.3748,-1.9826,0.006097,-0.001668,-0.69921,-0.714889,1.3306,0.065,0.0103,-0.00535,0.00061,0.04253,-0.0799,0.047,9.8406,4,1,7,7,-1
1771240801.5485268,22.6986,29.4415,-1.9827,0.00635,-0.001742,-0.699975,-0.714137,1.33,0.0614,0.0182,-0.00398,-0.00519,0.04357,-0.1398,0.0772,10.0758,4,1,7,7,-1
1771240801.5929425,22.6966,29.5081,-1.9825,0.006412,-0.001507,-0.700746,-0.71338,1.3331,0.0648,0.0192,-0.01134,-0.02097,0.04435,-0.4077,-0.0945,9.8575,4,1,7,7,-1
1771240801.642799,22.6974,29.5456,-1.9833,0.006483,-0.001252,-0.70154,-0.7126,1.3332,0.0605,0.0129,-0.00698,-0.01372,0.04622,-0.0479,-0.1878,9.7136,4,1,7,7,-1
1771240801.7001739,22.6954,29.6126,-1.9837,0.006511,-0.001104,-0.702332,-0.711819,1.3521,0.0595,0.003,-0.00211,0.01828,0.04484,0.4084,-0.222,9.729,4,1,7,7,-1
1771240801.7437367,22.6936,29.6805,-1.9844,0.006522,-0.001231,-0.703153,-0.711007,1.3588,0.0443,-0.0016,0.00616,0.00431,0.0432,-0.0241,-0.0998,9.6962,4,1,7,5,-1
1771240801.7942505,22.6923,29.7484,-1.9852,0.006488,-0.001353,-0.703892,-0.710276,1.354,0.0349,0.0001,0.00433,-0.00895,0.04382,-0.2813,-0.0806,9.7898,4,1,7,5,-1
1771240801.846295,22.691,29.8163,-1.986,0.006408,-0.001513,-0.704626,-0.709548,1.3637,0.0309,-0.0001,0.00774,0.01406,0.0449,-0.1141,-0.3214,9.874,4,1,7,5,-1
1771240801.8977664,22.6894,29.8848,-1.9867,0.006445,-0.001648,-0.705437,-0.708741,1.378,0.0393,-0.0001,-0.00129,0.01592,0.04914,0.0966,-0.2757,9.638,4,1,7,5,-1
1771240801.9488149,22.6826,29.9213,-1.9937,0.006261,-0.001354,-0.706291,-0.707893,1.3697,0.0463,-0.0049,-0.00282,0.00321,0.0475,0.2986,-0.9424,9.8614,4,1,7,7,-1
1771240802.004226,22.6807,29.9898,-1.9947,0.005676,-0.0012,-0.707077,-0.707113,1.3777,0.0258,-0.0092,0.01431,-0.00025,0.03936,0.6789,-0.8361,9.5378,4,1,7,7,-1
1771240802.0434804,22.6796,30.0593,-1.996,0.005133,-0.001423,-0.707784,-0.706409,1.3976,0.0113,-0.0177,0.02153,-0.04412,0.03492,0.1991,-0.5113,9.6615,4,1,7,7,-1
1771240802.0965896,22.6788,30.1298,-1.9977,0.005117,-0.002152,-0.708431,-0.705759,1.4082,0.0032,-0.0203,0.02483,-0.02286,0.03831,-0.2022,-0.7835,9.7155,4,1,7,7,-1
1771240802.1622837,22.6785,30.2006,-1.9995,0.004964,-0.002992,-0.709116,-0.705068,1.4189,-0.0053,-0.018,0.02995,0.01701,0.04117,0.1441,-0.4844,9.7009,4,1,7,7,-1
1771240802.2252777,22.6815,30.2842,-2.0117,0.004742,-0.003927,-0.709806,-0.70437,1.4337,-0.0191,-0.027,0.03547,0.00243,0.03624,-0.1471,-0.2356,9.6263,4,1,7,7,-1
1771240802.2445245,22.6816,30.3561,-2.0139,0.00439,-0.004672,-0.710441,-0.703728,1.4345,-0.0147,-0.021,0.03062,-0.00431,0.03875,-0.2575,-0.2885,10.059,4,1,7,7,-1
1771240802.3032253,22.6813,30.4281,-2.0159,0.004002,-0.005228,-0.711032,-0.703129,1.4448,-0.0001,-0.018,0.02678,-0.00324,0.03503,-0.2263,0.063,10.0157,4,1,7,7,-1
1771240802.342703,22.6802,30.5005,-2.0177,0.003609,-0.005543,-0.711628,-0.702525,1.4537,0.0129,-0.0162,0.01554,-0.00303,0.03074,0.1295,0.5578,9.8033,4,1,7,7,-1
1771240802.402241,22.6782,30.5733,-2.0192,0.003728,-0.006034,-0.712258,-0.701882,1.4461,0.0287,-0.0005,0.00777,-0.03917,0.03656,-0.8542,0.3916,10.1342,4,1,7,5,-1
1771240802.445731,22.6746,30.6421,-2.0253,0.004065,-0.006295,-0.712847,-0.70128,1.4517,0.0509,0.0067,-0.00264,-0.02405,0.0376,-0.6506,0.1471,10.0418,4,1,7,5,-1
1771240802.5084176,22.6707,30.7149,-2.0261,0.004528,-0.006448,-0.713443,-0.700669,1.4589,0.0617,0.0078,-0.00914,0.02693,0.03337,-0.4698,0.4021,9.8538,4,1,7,5,-1
1771240802.5432353,22.666,30.7876,-2.0268,0.004892,-0.006268,-0.714045,-0.700055,1.4599,0.0688,0.008,-0.01884,0.02362,0.03236,0.1981,0.1518,9.9213,4,1,7,5,-1
1771240802.608126,22.6609,30.8604,-2.0276,0.005083,-0.005852,-0.714613,-0.699477,1.455,0.0649,0.0024,-0.01947,-0.01368,0.03243,-0.3079,-0.164,9.6373,4,1,7,5,-1
1771240802.6486804,22.6556,30.9332,-2.0287,0.005457,-0.00551,-0.715205,-0.698872,1.46,0.0731,0.0005,-0.02141,-0.01045,0.03526,-0.2074,-0.1681,9.8118,4,1,7,5,-1
1771240802.6927314,22.65,31.0065,-2.0299,0.005851,-0.005167,-0.71582,-0.698241,1.4732,0.0757,-0.0007,-0.01861,-0.00393,0.03787,0.0163,-0.0816,9.7505,4,1,7,5,-1
1771240802.7430103,22.6445,31.0804,-2.0312,0.005998,-0.004773,-0.716428,-0.697619,1.491,0.0634,-0.008,-0.00778,-0.00265,0.03159,0.3015,-0.5636,9.6694,4,1,5,5,-1
1771240802.792183,22.6411,31.171,-2.0386,0.005941,-0.004865,-0.717013,-0.697017,1.52,0.0255,-0.0286,0.01385,0.00419,0.02657,0.2949,-0.4539,9.3757,4,1,5,5,-1
1771240802.8465922,22.6384,31.2474,-2.0414,0.005777,-0.005465,-0.71748,-0.696534,1.5296,-0.0014,-0.0335,0.02547,-0.02126,0.02749,-0.1943,-0.4571,9.6311,4,1,5,5,-1
1771240802.895492,22.6365,31.3243,-2.0444,0.005747,-0.006469,-0.717943,-0.696048,1.5435,-0.0106,-0.033,0.03407,0.03065,0.03013,-0.0959,0.011,9.813,4,1,5,5,-1
1771240802.9460516,22.6347,31.4016,-2.0474,0.005617,-0.007435,-0.718516,-0.695448,1.5477,-0.0043,-0.0274,0.03182,0.00502,0.03665,-0.2638,0.6214,9.8863,4,1,5,5,-1
1771240802.9932883,22.6338,31.4819,-2.0532,0.005438,-0.008149,-0.719132,-0.694804,1.5574,-0.002,-0.0224,0.02593,0.00501,0.03384,-0.0789,0.4457,9.9241,4,1,7,7,-1
1771240803.043112,22.631,31.5601,-2.0559,0.005372,-0.00884,-0.719636,-0.694275,1.5712,0.0073,-0.0229,0.0201,0.01337,0.0258,-0.0562,0.7145,9.7918,4,1,7,7,-1
1771240803.097599,22.6276,31.6388,-2.0586,0.00539,-0.009414,-0.720059,-0.693829,1.5822,0.0168,-0.0195,0.01444,0.01954,0.02429,0.086,0.4854,9.969,4,1,7,7,-1
1771240803.1423745,22.6235,31.718,-2.0613,0.005802,-0.010194,-0.720486,-0.693371,1.587,0.0231,-0.0188,0.00912,0.0355,0.02762,-0.491,0.349,9.7976,4,1,7,7,-1
1771240803.1995976,22.619,31.7971,-2.0642,0.006022,-0.010489,-0.72097,-0.69286,1.5869,0.0314,-0.0205,-0.00223,0.01993,0.02796,-0.2544,0.2427,9.9638,4,1,7,7,-1
1771240803.2422915,22.6141,31.8764,-2.0671,0.006283,-0.010548,-0.721421,-0.692388,1.5937,0.0314,-0.0188,-0.00745,0.01341,0.02309,-0.1047,0.1234,9.9991,4,1,7,7,-1
1771240803.2938955,22.6061,31.9441,-2.0715,0.006311,-0.010427,-0.721814,-0.69198,1.5948,0.0381,-0.0154,-0.00325,0.02076,0.01951,0.155,0.2788,9.8634,4,1,7,7,-1
1771240803.3429663,22.6004,32.0239,-2.074,0.006544,-0.01047,-0.722178,-0.691597,1.6073,0.0571,-0.007,-0.00938,0.01179,0.01998,0.2679,0.7689,10.1548,4,1,7,7,-1
1771240803.3929043,22.5934,32.104,-2.076,0.007065,-0.010309,-0.722605,-0.691149,1.6042,0.0759,0.0053,-0.02116,-0.00462,0.02805,-0.4877,-0.0201,10.0599,4,1,7,7,-1
1771240803.4428623,22.5861,32.1803,-2.0843,0.007655,-0.010322,-0.723115,-0.690608,1.6017,0.056,-0.0011,-0.00793,0.03564,0.0316,-0.3053,-0.5772,9.6645,4,1,7,7,-1
1771240803.4956234,22.5802,32.26,-2.0866,0.00718,-0.009989,-0.723714,-0.689991,1.6056,0.0259,-0.0197,0.01092,-0.04974,0.0356,0.4584,-0.6687,9.2242,4,1,7,7,-1
1771240803.5492358,22.5759,32.3413,-2.0902,0.006882,-0.010431,-0.724215,-0.689461,1.6478,-0.0099,-0.041,0.02526,0.03895,0.02513,0.2885,-0.4773,9.6759,4,1,5,7,-1
1771240803.592495,22.5726,32.4233,-2.0941,0.006318,-0.010955,-0.724685,-0.688964,1.6346,-0.013,-0.0319,0.03017,-0.02878,0.02212,-0.4051,0.4534,9.8531,4,1,5,7,-1
1771240803.6811266,22.5684,32.4767,-2.1026,0.00568,-0.01132,-0.725153,-0.688471,1.6257,-0.0036,-0.0173,0.02717,-0.01602,0.0269,-0.1984,0.9684,10.3213,4,1,5,7,-1
1771240803.695602,22.564,32.5576,-2.1049,0.004862,-0.011202,-0.725657,-0.687949,1.6146,0.0161,-0.0009,0.01332,-0.08408,0.0265,-0.6548,1.2447,10.0963,4,1,5,7,-1
1771240803.7439878,22.5586,32.6388,-2.1065,0.004502,-0.011074,-0.726101,-0.687484,1.6324,0.0278,0.0096,0.00124,-0.02447,0.02659,-0.4007,1.2035,10.0416,4,1,5,7,-1
1771240803.7986686,22.552,32.7205,-2.1075,0.004544,-0.010976,-0.726546,-0.687015,1.6364,0.0466,0.0202,-0.00915,-0.02791,0.03094,-0.9158,0.8161,10.0865,4,1,5,7,-1
1771240803.8542407,22.5452,32.8014,-2.1123,0.004619,-0.010722,-0.727047,-0.686488,1.6437,0.0635,0.0168,-0.01735,0.00207,0.03152,-0.2484,0.8875,9.7634,4,1,5,7,-1
1771240803.9058707,22.5363,32.883,-2.113,0.004764,-0.010043,-0.727611,-0.6859,1.6347,0.0825,0.0189,-0.03005,-0.02209,0.03484,-0.4261,0.1634,9.5581,4,1,5,7,-1
1771240803.9467618,22.5271,32.9641,-2.1136,0.004761,-0.009182,-0.728124,-0.685367,1.6294,0.068,0.0166,-0.02003,-0.007,0.02933,-0.1183,-0.8819,9.7801,4,1,7,7,-1
1771240803.995658,22.5188,33.0549,-2.1068,0.004653,-0.008533,-0.72854,-0.684934,1.6334,0.0647,0.0154,-0.01407,-0.0057,0.02429,-0.1749,-0.2191,9.5411,4,1,7,7,-1
1771240804.0431116,22.5102,33.136,-2.1076,0.004708,-0.008074,-0.728996,-0.684454,1.6309,0.0738,0.006,-0.01867,0.00946,0.02712,0.0606,0.4095,9.5435,4,1,7,7,-1
1771240804.093515,22.5004,33.2167,-2.1089,0.00524,-0.007543,-0.729617,-0.683794,1.608,0.1022,-0.0004,-0.0342,-0.04027,0.04191,-0.7965,0.1113,9.7143,4,1,7,7,-1
1771240804.1505556,22.4903,33.296,-2.1106,0.004932,-0.00646,-0.730424,-0.682946,1.5827,0.0762,-0.0189,-0.01353,-0.08886,0.04806,-1.0434,-0.9148,9.2684,4,1,7,7,-1
1771240804.1932151,22.4819,33.3753,-2.1133,0.004518,-0.005824,-0.731017,-0.682319,1.6122,0.0515,-0.0369,-0.00616,0.02467,0.02707,0.4788,0.0561,9.6663,4,1,7,5,-1
1771240804.2494884,22.4739,33.4548,-2.1157,0.003375,-0.004737,-0.73152,-0.681796,1.6101,0.019,-0.0405,0.00806,-0.04057,0.02272,0.8567,-0.4199,9.8779,4,1,7,5,-1
1771240804.2925572,22.4675,33.5355,-2.1186,0.002554,-0.004715,-0.732041,-0.68124,1.6289,0.0091,-0.0438,0.02698,-0.02699,0.03894,0.0935,0.2181,9.489,4,1,7,5,-1
1771240804.347397,22.4606,33.6172,-2.1215,0.001862,-0.004737,-0.732738,-0.680492,1.6456,0.0252,-0.0379,0.01746,-0.0385,0.04394,-0.1405,0.431,10.3029,4,1,7,5,-1
1771240804.4049354,22.4521,33.7407,-2.1274,0.001123,-0.004575,-0.733452,-0.679725,1.6543,0.0059,-0.0313,0.02128,-0.0162,0.03464,-0.2728,-0.1516,9.9464,4,1,5,5,-1
1771240804.4488888,22.4457,33.8235,-2.1296,0.000103,-0.004454,-0.73394,-0.6792,1.6791,-0.004,-0.0429,0.02176,0.01322,0.02422,0.9554,0.2191,9.6389,4,1,5,5,-1
1771240804.4930081,22.4384,33.9074,-2.1324,-0.00051,-0.004384,-0.734435,-0.678664,1.691,0.0196,-0.0501,0.0059,-0.01675,0.03034,0.5151,-0.0348,9.7524,4,1,5,5,-1
1771240804.5615585,22.4292,33.9918,-2.1356,-0.000365,-0.004274,-0.734966,-0.67809,1.7094,0.0732,-0.0623,-0.01559,0.03057,0.03297,0.72,0.8511,9.3706,4,1,5,5,-1
1771240804.5958118,22.418,34.0764,-2.139,-5.2e-05,-0.003715,-0.735598,-0.677408,1.6981,0.0915,-0.0558,-0.02416,-0.0202,0.03579,-0.5252,-0.0541,9.9925,4,1,5,5,-1
1771240804.6423333,22.4071,34.158,-2.1434,-0.000155,-0.002947,-0.736179,-0.676781,1.6696,0.0798,-0.0372,-0.01121,-0.05845,0.03444,-1.0354,-0.1696,10.3096,4,1,5,5,-1
1771240804.6926975,22.3968,34.2401,-2.1445,-0.00113,-0.001816,-0.736657,-0.676263,1.6487,0.0647,-0.0062,-0.00014,-0.02569,0.02836,-0.1119,0.5702,10.3919,4,1,5,5,-1
1771240804.7456377,22.3871,34.3217,-2.1444,-0.002082,-0.001053,-0.737251,-0.675615,1.6533,0.0499,-0.0028,0.00344,-0.00614,0.03181,1.0999,0.6067,9.8104,4,1,5,5,-1
1771240804.793095,22.3778,34.4043,-2.1447,-0.001538,-0.00166,-0.737706,-0.675118,1.6581,0.0205,-0.0139,0.01182,-0.01842,0.0349,-0.7903,-0.4848,9.3349,4,1,5,5,-1
1771240804.8429737,22.3698,34.4869,-2.1461,-0.00286,-0.00099,-0.738222,-0.674551,1.6872,0.0139,-0.0483,0.01812,0.04098,0.02854,1.1094,0.1449,9.2109,4,1,5,5,-1
1771240804.8949735,22.3634,34.5143,-2.1452,-0.003545,-0.000871,-0.73875,-0.67397,1.6458,0.0237,-0.0451,0.01698,-0.04186,0.0327,-0.5625,0.7249,9.748,4,1,5,5,-1
1771240804.9424021,22.3546,34.5955,-2.1464,-0.004177,-0.000734,-0.739196,-0.673477,1.6278,0.0338,-0.025,0.00825,-0.01616,0.02635,-0.413,0.6276,9.9595,4,1,7,7,-1
1771240804.9947777,22.345,34.6767,-2.147,-0.004527,-0.000442,-0.739626,-0.673002,1.6505,0.0475,-0.024,-0.00252,0.01473,0.02641,0.9993,0.6972,9.77,4,1,7,7,-1
1771240805.0472617,22.3348,34.7591,-2.1479,-0.004198,-0.000687,-0.74009,-0.672494,1.6744,0.0425,-0.0266,-0.00359,0.06916,0.02497,0.7151,0.3148,9.9872,4,1,7,7,-1
1771240805.0941985,22.3241,34.8422,-2.1489,-0.003009,-0.001553,-0.740559,-0.671982,1.6603,0.0529,-0.0202,-0.01147,0.0295,0.03224,-1.2095,0.1218,10.0836,4,1,7,7,-1
1771240805.145967,22.3198,34.9101,-2.1452,-0.003093,-0.001076,-0.741025,-0.67147,1.6277,0.0611,-0.0136,-0.02136,-0.02715,0.02838,-0.1762,0.6054,9.72,4,1,7,7,-1
1771240805.2010143,22.3083,34.9908,-2.1458,-0.002635,-0.000863,-0.74146,-0.670991,1.6224,0.0519,-0.0216,-0.01245,-0.02777,0.02677,-0.6805,-0.9715,9.7646,4,1,7,7,-1
1771240805.2447298,22.2981,35.071,-2.1466,-0.002808,-0.000739,-0.741892,-0.670513,1.6109,0.0328,-0.0165,0.00392,0.00083,0.02153,0.082,-0.256,10.3001,4,1,7,7,-1
1771240805.2968,22.2883,35.1508,-2.1471,-0.002674,-0.000786,-0.742203,-0.67017,1.6052,0.0315,-0.009,-0.00993,0.00381,0.01461,0.1678,0.2533,9.8655,4,1,7,7,-1
1771240805.3456542,22.2806,35.2934,-2.1441,-0.002048,-0.000675,-0.742396,-0.669958,1.5936,0.0533,0.0034,-0.02741,-0.0696,0.01738,-0.9016,0.3581,10.0989,4,1,7,7,-1
1771240805.4029484,22.2689,35.3725,-2.1438,-0.001566,-0.000237,-0.742686,-0.669638,1.6092,0.0754,0.0053,-0.02199,0.08082,0.02222,0.5985,-0.0895,10.2747,4,1,7,7,-1
1771240805.4424443,22.2569,35.4511,-2.1433,-0.001592,0.000236,-0.743251,-0.669011,1.5822,0.075,0.0017,-0.01561,0.00058,0.03066,0.2982,0.2343,9.3769,4,1,7,7,-1
1771240805.4979656,22.2446,35.5294,-2.1431,-0.001049,0.000675,-0.743742,-0.668466,1.5696,0.082,-0.0035,-0.0312,-0.08282,0.03488,-0.8587,0.4641,9.4525,4,1,7,7,-1
1771240805.5484633,22.2332,35.6072,-2.1434,-0.000305,0.000465,-0.743988,-0.668193,1.5662,0.0144,-0.0086,0.00517,0.06721,0.01546,-1.0421,-2.647,10.0933,4,1,7,7,-1
1771240805.5953004,22.2245,35.6835,-2.1436,-0.001143,0.000472,-0.744326,-0.667815,1.518,0.0013,-0.0079,0.01933,-0.00325,0.01288,0.0423,-0.3979,9.7193,4,1,7,5,-1
1771240805.6422238,22.2189,35.7746,-2.1406,-0.002351,0.00113,-0.744647,-0.667454,1.5078,0.0175,-0.0199,0.00387,-0.05322,0.01828,0.8933,-0.126,9.2677,4,1,7,5,-1
1771240805.6940086,22.2098,35.8501,-2.1416,-0.002307,0.000835,-0.745033,-0.667024,1.5245,0.0128,-0.0282,0.00939,0.00107,0.02295,-0.1042,-0.0283,9.7608,4,1,7,5,-1
1771240805.7424564,22.2011,35.9256,-2.1425,-0.002071,0.000151,-0.745511,-0.66649,1.5068,0.0057,-0.0188,0.01423,0.01174,0.02769,-0.4321,0.6193,9.8738,4,1,7,5,-1
1771240805.7927208,22.1922,35.9998,-2.1431,-0.00227,-6.6e-05,-0.745931,-0.66602,1.477,0.0051,-0.0171,0.00904,-0.02981,0.01972,-0.8786,-0.0768,9.8268,4,1,5,5,-1
1771240805.8434281,22.1868,36.0853,-2.1424,-0.002649,5e-06,-0.746246,-0.665665,1.4542,0.0142,-0.0203,0.00196,-0.00833,0.01521,-0.7417,0.1866,9.5994,4,1,5,5,-1
1771240805.8941574,22.1773,36.1568,-2.1432,-0.002788,0.000326,-0.746493,-0.665388,1.4379,0.0364,-0.0235,-0.00935,0.00566,0.01574,0.0584,0.5015,9.6647,4,1,5,5,-1
1771240805.9422777,22.1668,36.2276,-2.1441,-0.002922,0.000883,-0.746696,-0.665159,1.4237,0.0523,-0.03,-0.01627,-0.0001,0.01197,-0.5556,0.4936,9.6024,4,1,7,7,-1
1771240805.9956322,22.1555,36.2974,-2.1451,-0.002398,0.001222,-0.746948,-0.664877,1.4032,0.0727,-0.0266,-0.03032,0.01962,0.0156,-0.325,0.5827,9.931,4,1,7,7,-1
1771240806.0441291,22.1436,36.3659,-2.146,-0.001409,0.001303,-0.747316,-0.664466,1.3739,0.069,-0.0207,-0.02783,0.03727,0.0266,-0.4171,-0.0986,9.9603,4,1,7,7,-1
1771240806.0925512,22.1343,36.4533,-2.1458,-0.000271,0.000993,-0.747726,-0.664007,1.3446,0.052,-0.0183,-0.01634,0.03409,0.027,-1.147,-0.7335,9.8395,4,1,7,7,-1
1771240806.1490586,22.1241,36.5187,-2.1466,0.000538,0.000808,-0.748043,-0.663649,1.3102,0.0373,-0.0153,-0.01716,0.08228,0.00945,-0.3904,-0.8714,9.723,4,1,7,7,-1
1771240806.1961422,22.1155,36.5824,-2.1473,0.000876,0.000652,-0.74829,-0.663371,1.2707,0.0019,-0.0156,0.00556,0.06511,0.00855,0.5918,-0.8356,9.7768,4,1,5,7,-1
1771240806.2427087,22.1089,36.6442,-2.1483,0.001036,-6e-05,-0.748509,-0.663124,1.2101,-0.0251,-0.0187,0.02458,-0.00033,0.01027,-1.1405,-0.3612,9.5434,4,1,5,7,-1
1771240806.304057,22.1027,36.7034,-2.1494,0.001032,-0.000687,-0.748783,-0.662814,1.166,-0.0016,-0.0222,0.01813,0.00067,0.01668,-0.9086,0.9309,9.794,4,1,5,7,-1
1771240806.3483727,22.1041,36.7583,-2.1489,0.000879,-0.00096,-0.748998,-0.662571,1.1145,-0.0106,-0.0129,0.01168,-0.00046,0.00991,-1.3618,0.6419,9.9171,4,1,5,5,-1
1771240806.3945916,22.0978,36.8125,-2.1495,0.000923,-0.00123,-0.749077,-0.662482,1.064,0.0003,-0.0023,0.00343,-0.00621,0.00783,-1.2562,0.9255,10.0069,4,1,5,5,-1
1771240806.4468517,22.0912,36.864,-2.1497,0.001221,-0.001532,-0.749147,-0.662401,1.0143,0.0013,0.0029,-0.00064,0.03778,0.00688,-1.0476,-0.1124,9.9354,4,1,5,5,-1
1771240806.5020442,22.085,36.9128,-2.1497,0.001328,-0.001627,-0.749362,-0.662157,0.9618,0.0021,0.0018,0.00044,0.0246,0.01418,-0.7652,0.2309,9.8147,4,1,5,5,-1
1771240806.5445282,22.079,36.9593,-2.15,0.001373,-0.001564,-0.749628,-0.661856,0.918,0.0025,-0.006,-0.00752,0.00564,0.01528,-0.6871,0.184,9.6321,4,1,5,5,-1
1771240806.6017406,22.0799,37.002,-2.1495,0.001176,-0.001252,-0.749767,-0.661699,0.875,0.0043,-0.0122,-0.00733,-0.0207,0.01074,-0.9599,0.2931,9.7041,4,1,5,5,-1
1771240806.6442344,22.0741,37.0445,-2.1503,0.000981,-0.000968,-0.749829,-0.66163,0.839,0.0048,-0.0124,-0.00284,-0.01742,0.00771,-0.888,0.0657,9.8808,4,1,5,5,-1
1771240806.705944,22.0684,37.0853,-2.1509,0.000894,-0.000785,-0.74992,-0.661527,0.8132,0.0109,-0.0115,-0.00637,0.02434,0.007,-0.6477,0.0116,9.8169,4,1,5,5,-1
1771240806.742399,22.0629,37.1244,-2.1514,0.000786,-0.000516,-0.750063,-0.661366,0.7736,0.0019,-0.0081,-0.00701,0.00482,0.00706,-0.3933,-0.6448,9.7914,4,1,5,5,-1
1771240806.79771,22.0581,37.1618,-2.1518,0.000724,-0.000415,-0.7502,-0.661211,0.7331,-0.007,-0.0086,-0.00209,-0.00702,0.00788,-0.7,-0.5748,9.6034,4,1,5,5,-1
1771240806.8439052,22.054,37.1971,-2.1524,0.000653,-0.000414,-0.750353,-0.661037,0.6886,-0.0104,-0.0116,0.00115,-0.02699,0.00832,-0.7879,-0.2466,9.7781,4,1,5,5,-1
1771240806.8943672,22.0531,37.2158,-2.1527,0.000777,-0.000546,-0.750452,-0.660924,0.6496,-0.0066,-0.0115,-0.00081,0.00637,0.0074,-0.924,-0.379,9.8702,4,1,5,5,-1
1771240806.9497366,22.0493,37.2469,-2.1531,0.000558,-0.000441,-0.750556,-0.660807,0.6049,-0.0044,-0.0053,0.00196,-0.00976,0.00618,-0.7457,-0.1352,9.8531,4,1,7,7,-1
1771240806.9964013,22.0456,37.2761,-2.1533,0.000599,-0.000483,-0.750675,-0.660671,0.5731,-0.001,-0.0016,-0.0025,0.00393,0.00753,-0.7273,-0.049,9.8395,4,1,7,7,-1
1771240807.042524,22.0422,37.3037,-2.1535,0.000553,-0.000427,-0.750786,-0.660545,0.5397,-0.004,-0.0029,0.00064,0.00409,0.00632,-0.6902,-0.2464,9.8467,4,1,7,7,-1
1771240807.0945249,22.0392,37.3296,-2.1537,0.000613,-0.000524,-0.750898,-0.660418,0.5003,-0.0084,-0.0035,0.00144,-0.00819,0.00602,-0.9221,-0.0911,9.786,4,1,7,7,-1
1771240807.1426017,22.0396,37.3155,-2.1516,0.000596,-0.000573,-0.75096,-0.660347,0.4529,-0.0084,-0.0017,0.00225,0.00725,0.00543,-0.7885,-0.0801,9.8424,4,1,7,7,-1
1771240807.1933944,22.0372,37.337,-2.1518,0.000518,-0.000563,-0.751016,-0.660284,0.4143,-0.0056,-0.0036,0.00106,-0.00114,0.00175,-0.696,-0.027,9.7596,4,1,7,7,-1
1771240807.2488797,22.0347,37.3567,-2.152,0.000383,-0.000502,-0.751077,-0.660214,0.3787,-0.0011,-0.0039,-0.00091,-0.00123,0.00404,-0.6596,-0.0634,9.7913,4,1,7,7,-1
1771240807.292469,22.0324,37.3746,-2.1522,0.000351,-0.00041,-0.751145,-0.660137,0.3443,0.001,-0.005,-0.00264,0.00338,0.00353,-0.59,-0.136,9.7714,4,1,7,7,-1
1771240807.3429954,22.0303,37.3908,-2.1525,0.000277,-0.000296,-0.751204,-0.66007,0.3107,-0.0013,-0.0048,-0.00114,-0.00449,0.00167,-0.5045,-0.1219,9.8057,4,1,7,7,-1
1771240807.3952217,22.0329,37.3563,-2.1472,0.000239,-0.000289,-0.75121,-0.660063,0.2671,-0.003,-0.0018,0.00075,-0.00914,-0.00115,-0.667,-0.1071,9.8223,4,1,7,7,-1
1771240807.446049,22.0315,37.3687,-2.1473,0.000243,-0.000285,-0.751209,-0.660064,0.2358,-0.0013,-0.0019,-0.00059,-0.0038,0.00115,-0.6433,0.1145,9.7649,4,1,7,7,-1
1771240807.4922662,22.0301,37.3797,-2.1474,0.000293,-0.000242,-0.751248,-0.66002,0.2069,0.001,-0.003,-0.00202,-0.00556,0.00349,-0.6861,0.0507,9.8031,4,1,7,7,-1
1771240807.5456457,22.0288,37.3893,-2.1476,0.000318,-0.000184,-0.751306,-0.659954,0.1768,0.0002,-0.0031,-0.00089,0.0005,0.00309,-0.6315,0.0063,9.8246,4,1,7,7,-1
1771240807.594865,22.0278,37.3973,-2.1478,0.000346,-0.000157,-0.751347,-0.659907,0.147,-0.0017,-0.0033,-0.00279,0.00257,0.00222,-0.5968,-0.0046,9.8196,4,1,7,7,-1
1771240807.647458,22.0271,37.4039,-2.1479,0.000352,-0.000135,-0.751369,-0.659882,0.1178,-0.0053,-0.0037,2e-05,-0.00012,0.00097,-0.5708,-0.0697,9.7804,4,1,7,7,-1
1771240807.6960359,22.0307,37.4091,-2.143,0.000385,-0.000159,-0.751361,-0.659891,0.0908,-0.0049,-0.0025,-0.00029,0.00271,0.00026,-0.5706,0.0309,9.7961,4,1,7,7,-1
1771240807.745582,22.0304,37.4129,-2.1432,0.000434,-0.000146,-0.751374,-0.659876,0.0613,-0.0035,-0.0023,-0.00065,0.00164,0.00072,-0.6046,0.0014,9.8147,4,1,7,7,-1
1771240807.7935228,22.0303,37.4152,-2.1433,0.000479,-0.000168,-0.751408,-0.659837,0.0308,-0.0051,-0.0014,-0.00091,0.00445,0.00238,-0.5932,-0.0689,9.8278,4,1,7,7,-1
1771240807.8425283,22.0305,37.4161,-2.1433,0.00049,-0.000188,-0.751433,-0.65981,0.0024,-0.0061,-0.0019,-0.0005,0.00094,0.00067,-0.6113,-0.0517,9.7549,4,1,7,7,-1
1771240807.8955605,22.0305,37.4161,-2.1433,0.00049,-0.000188,-0.751433,-0.65981,0.0024,-0.0061,-0.0019,-2e-05,-0.00207,-0.00111,-0.5201,0.009,9.8369,4,1,7,7,-1
1771240807.9459994,22.0317,37.4138,-2.1441,0.000463,-0.000156,-0.751411,-0.659834,-0.0492,0.0003,-0.0038,0.00184,-0.00597,-0.00125,-0.5568,0.0296,9.8011,4,1,7,7,-1
1771240807.9975286,22.0319,37.4108,-2.1441,0.000511,-2.5e-05,-0.751394,-0.659854,-0.0684,0.0083,0.0009,-0.00646,0.00154,-0.00146,-0.2155,0.2432,9.9518,4,1,7,7,-1
1771240808.046842,22.0318,37.4069,-2.1439,0.000429,0.000351,-0.751403,-0.659843,-0.0857,0.0155,0.0079,-0.00836,-0.02306,0.00052,-0.2468,0.0793,9.9717,4,1,7,7,-1
1771240808.095408,22.0316,37.4024,-2.1434,0.00039,0.000712,-0.751416,-0.659828,-0.0895,0.0168,0.0117,-0.01031,-0.00443,0.00131,-0.0764,-0.0156,9.8368,4,1,7,7,-1
1771240808.1459568,22.0313,37.3978,-2.1428,0.000297,0.001084,-0.751411,-0.659833,-0.0903,0.0155,0.011,-0.00874,-0.01268,-0.00101,-0.0311,-0.0819,9.7559,4,1,7,7,-1
1771240808.1954432,22.0297,37.4215,-2.1458,0.000128,0.001449,-0.751382,-0.659866,-0.0903,0.0053,0.0064,-0.00478,-0.01596,-0.00302,-0.1603,-0.2836,9.8181,4,1,7,7,-1
1771240808.2449293,22.0304,37.4169,-2.1455,-0.000182,0.001712,-0.751296,-0.659963,-0.0919,-0.0053,0.0041,0.00149,-0.01925,-0.00687,0.0345,0.0056,9.6555,4,1,7,7,-1
1771240808.2921665,22.0313,37.4125,-2.1454,-0.000403,0.001845,-0.751239,-0.660028,-0.0854,-0.0055,-0.0018,0.00062,-0.00798,-0.00216,0.2467,-0.0103,9.6229,4,1,7,7,-1
1771240808.345818,22.0318,37.4086,-2.1456,-0.00035,0.001823,-0.751295,-0.659964,-0.0751,0.0019,-0.0066,-0.00124,0.01063,0.00589,0.318,-0.1383,9.4421,4,1,7,7,-1
1771240808.3933752,22.0323,37.405,-2.146,-0.00037,0.001848,-0.751353,-0.659898,-0.0699,0.0009,-0.0093,0.00105,0.00827,-0.00068,0.2944,-0.177,9.8169,4,1,7,7,-1
1771240808.4448814,22.0327,37.4016,-2.1464,-0.000366,0.001803,-0.751327,-0.659927,-0.0695,0.0006,-0.0079,-0.00069,-0.00586,-0.00597,0.065,-0.1089,9.821,4,1,7,7,-1
1771240808.4994762,22.0311,37.4339,-2.1481,-0.00043,0.001852,-0.751246,-0.660019,-0.0559,0.003,-0.0091,0.0008,-0.00871,-0.00343,0.1355,0.0199,9.8272,4,1,7,7,-1
1771240808.5454965,22.0313,37.4313,-2.1486,-0.00036,0.001839,-0.751243,-0.660024,-0.0509,0.0085,-0.0087,-0.00197,-0.00212,0.00164,0.0676,0.2479,9.8783,4,1,7,7,-1
1771240808.5933833,22.0313,37.4289,-2.1491,-0.000223,0.001814,-0.75129,-0.659969,-0.0484,0.0075,-0.0086,-0.00111,-0.00189,0.00256,-0.1116,0.0912,9.8069,4,1,7,7,-1
1771240808.6561089,22.0315,37.4266,-2.1495,-0.000232,0.001815,-0.751298,-0.659961,-0.0456,0.0003,-0.0087,0.00203,-0.00044,-0.00012,0.0592,0.0212,9.7904,4,1,7,7,-1
1771240808.692689,22.0319,37.4244,-2.15,-0.000259,0.00177,-0.751258,-0.660006,-0.0418,0.0008,-0.0082,0.00255,0.00249,-0.00261,0.0759,0.215,9.865,4,1,7,7,-1
1771240808.749977,22.0301,37.4463,-2.1505,-0.000245,0.001837,-0.751229,-0.660039,-0.0336,0.0055,-0.0082,-0.00144,-2e-05,-5e-05,0.0428,0.1721,9.8013,4,1,7,7,-1
1771240808.7947114,22.03,37.4446,-2.1509,-0.000241,0.001861,-0.751242,-0.660025,-0.0316,0.0052,-0.0083,0.00083,0.00042,0.00067,0.0652,0.0206,9.8133,4,1,7,7,-1
1771240808.8524876,22.0301,37.4431,-2.1513,-0.000232,0.001861,-0.751245,-0.660021,-0.0294,0.0012,-0.0082,-0.00014,0.00121,-0.00068,0.0598,-0.0411,9.8185,4,1,7,7,-1
1771240808.894146,22.0303,37.4417,-2.1517,-0.000241,0.001855,-0.751229,-0.660039,-0.0274,-0.0012,-0.0075,0.00147,0.0004,-0.00074,0.0623,0.0023,9.8233,4,1,7,7,-1
1771240808.9438703,22.0305,37.4404,-2.1521,-0.000247,0.001824,-0.751225,-0.660044,-0.0245,0.0003,-0.008,0.00069,0.00335,0.00097,0.0782,0.0782,9.7919,4,1,7,7,-1
1771240808.9927084,22.0283,37.4515,-2.1521,-0.000222,0.001829,-0.751205,-0.660066,-0.018,0.0036,-0.008,0.00014,-0.00161,0.00023,0.0255,0.0285,9.8119,4,1,7,7,-1
1771240809.043498,22.0283,37.4506,-2.1525,-0.000337,0.001883,-0.751202,-0.660069,-0.0151,0.0018,-0.0081,0.00043,0.00097,5e-05,0.1101,-0.079,9.793,4,1,7,7,-1
1771240809.0952222,22.0283,37.4506,-2.1525,-0.000337,0.001883,-0.751202,-0.660069,-0.0151,0.0018,-0.0081,-0.00218,0.00085,-0.00068,0.0717,-0.0031,9.8225,4,1,7,7,-1
1771240809.1465254,22.0283,37.4506,-2.1525,-0.000337,0.001883,-0.751202,-0.660069,-0.0151,0.0018,-0.0081,-0.00053,0.00034,0.00013,0.0791,-0.0222,9.8011,4,1,7,7,-1
1771240809.1926453,22.0283,37.4506,-2.1525,-0.000337,0.001883,-0.751202,-0.660069,-0.0151,0.0018,-0.0081,-0.00054,0.00054,0.00025,0.068,-0.0109,9.816,4,1,7,7,-1
1771240809.2420027,22.0283,37.4506,-2.1525,-0.000337,0.001883,-0.751202,-0.660069,-0.0151,0.0018,-0.0081,-0.00093,-2e-05,4e-05,0.0818,-0.0478,9.7974,4,1,7,7,-1
1771240809.2920413,22.0279,37.4597,-2.1505,-0.000308,0.001874,-0.751168,-0.660108,-0.0085,0.0004,-0.0081,0.00074,0.0002,-0.00104,0.0538,0.0061,9.8138,4,1,7,7,-1
1771240809.3423154,22.0279,37.4597,-2.1505,-0.000308,0.001874,-0.751168,-0.660108,-0.0085,0.0004,-0.0081,-0.00148,0.00281,-6e-05,0.0526,-0.0074,9.7938,4,1,7,7,-1
1771240809.3920817,22.0279,37.4597,-2.1505,-0.000308,0.001874,-0.751168,-0.660108,-0.0085,0.0004,-0.0081,-0.00082,0.00048,0.00013,-0.0239,-0.0312,9.8175,4,1,7,7,-1
1771240809.4485,22.0279,37.4597,-2.1505,-0.000308,0.001874,-0.751168,-0.660108,-0.0085,0.0004,-0.0081,0.00049,-0.00919,-0.00046,0.1016,-0.0437,9.8035,4,1,7,7,-1
1771240809.4925663,22.0279,37.4597,-2.1505,-0.000308,0.001874,-0.751168,-0.660108,-0.0085,0.0004,-0.0081,0.00052,-0.00461,-0.00029,0.3388,0.0454,9.8113,4,1,7,7,-1
1771240809.5427415,22.0279,37.4597,-2.1505,-0.000308,0.001874,-0.751168,-0.660108,-0.0085,0.0004,-0.0081,0.00055,-0.00298,0.00055,0.41,-0.0448,9.8192,4,1,7,7,-1
1771240809.5973687,22.0248,37.4695,-2.1455,-0.000209,0.001842,-0.751147,-0.660132,0.0063,0.0026,-0.0045,0.00067,-0.00898,0.0006,0.471,-0.0359,9.8435,4,1,7,7,-1
1771240809.643021,22.0248,37.4695,-2.1455,-0.000209,0.001842,-0.751147,-0.660132,0.0063,0.0026,-0.0045,0.00263,-0.00432,-5e-05,0.4017,-0.0718,9.7606,4,1,7,7,-1
1771240809.6938515,22.0248,37.4695,-2.1455,-0.000209,0.001842,-0.751147,-0.660132,0.0063,0.0026,-0.0045,-0.00066,0.00821,0.00139,0.5533,0.0296,9.8493,4,1,7,7,-1
1771240809.7423034,22.0248,37.4695,-2.1455,-0.000209,0.001842,-0.751147,-0.660132,0.0063,0.0026,-0.0045,0.00061,-0.00164,0.00074,0.444,-0.0469,9.7625,4,1,7,7,-1
1771240809.7961988,22.0183,37.5026,-2.143,-0.000516,0.002029,-0.751214,-0.660056,0.1502,0.0047,-0.0002,-0.00214,0.00505,0.00111,0.456,0.0211,9.8474,4,1,7,7,-1
1771240809.8429978,22.0171,37.5104,-2.143,-0.000495,0.002003,-0.751236,-0.660031,0.1677,0.0033,-0.0008,0.00022,0.00399,0.00078,0.3962,-0.081,9.7852,4,1,7,7,-1
1771240809.8928783,22.0158,37.5191,-2.143,-0.000438,0.001913,-0.751263,-0.660001,0.1831,0.0022,-0.0002,0.00256,0.00339,0.00182,0.3682,0.0457,9.8163,4,1,7,7,-1
1771240809.9420974,22.0144,37.5285,-2.143,-0.000425,0.001873,-0.751298,-0.659961,0.1946,0.0048,-0.0002,0.00127,-0.0054,0.00196,0.2099,-0.0036,9.778,4,1,7,7,-1
1771240809.993161,22.0128,37.5384,-2.143,-0.000394,0.001896,-0.751329,-0.659926,0.2098,0.0064,0.0007,-0.00177,0.0033,0.00226,0.3589,0.0046,9.8347,4,1,7,7,-1
1771240810.0461655,22.0111,37.5492,-2.1429,-0.000296,0.001866,-0.751356,-0.659895,0.2231,0.0084,0.0001,-0.0022,0.00439,0.00123,0.2449,0.0649,9.8325,4,1,7,7,-1
1771240810.098106,22.0092,37.5604,-2.1428,-0.000301,0.00196,-0.751363,-0.659886,0.2318,0.01,0.0016,-0.00265,-0.00471,-0.00019,0.2622,-0.0105,9.8244,4,1,7,7,-1
1771240810.146276,22.006,37.5955,-2.1413,-0.000351,0.002069,-0.751367,-0.659881,0.2441,0.0055,0.0007,0.00163,-0.00134,0.00101,0.3729,-0.0249,9.7807,4,1,7,7,-1
1771240810.2015226,22.0042,37.6079,-2.1412,-0.000382,0.002083,-0.751404,-0.659839,0.2581,0.0015,-0.001,0.00156,-0.0057,0.00313,0.2452,-0.0927,9.7892,4,1,7,7,-1
1771240810.24286,22.0025,37.6211,-2.1412,-0.000375,0.002039,-0.751459,-0.659777,0.2735,-0.0012,-0.0003,0.00417,0.00194,0.0029,0.3148,-0.1129,9.7867,4,1,7,7,-1
1771240810.29987,22.0009,37.635,-2.1412,-0.000358,0.001898,-0.751487,-0.659745,0.2859,-0.0047,0.0009,0.00323,0.01163,0.00071,0.2986,-0.0402,9.7751,4,1,7,7,-1
1771240810.3433025,22.0004,37.643,-2.1408,-0.000337,0.001879,-0.751492,-0.659739,0.2892,0.0023,0.0039,-0.00104,-0.00376,-0.00011,0.2517,0.1453,9.8787,4,1,7,7,-1
1771240810.3995607,21.9982,37.6577,-2.1406,-0.000294,0.001995,-0.751515,-0.659713,0.3048,0.0105,0.0021,-0.00326,0.00188,0.00229,0.3466,0.0893,9.8005,4,1,7,7,-1
1771240810.4501526,21.9956,37.6731,-2.1405,-0.000333,0.002039,-0.751587,-0.659631,0.3211,0.0103,-0.0007,-0.00039,-0.00125,0.00418,0.3293,-0.0159,9.8103,4,1,7,7,-1
1771240810.4983623,21.993,37.6894,-2.1405,-0.00038,0.002173,-0.75162,-0.659593,0.3369,0.0088,-0.0027,-0.00328,-0.0036,-0.00089,0.3785,-0.16,9.8073,4,1,7,7,-1
1771240810.5452235,21.9907,37.7065,-2.1405,-0.000442,0.002248,-0.75158,-0.659638,0.3525,-0.0024,0.0006,-7e-05,-0.00039,-0.00231,0.4147,-0.1231,9.9405,4,1,7,7,-1
1771240810.5930252,21.9885,37.7244,-2.1404,-0.000372,0.002165,-0.751565,-0.659655,0.3683,-0.0026,0.0017,0.00093,-0.0028,0.00197,0.2495,0.0666,9.7845,4,1,7,7,-1
1771240810.641849,21.987,37.7358,-2.1409,-0.000313,0.002179,-0.751632,-0.659579,0.38,0.0011,0.0016,-0.00238,0.01114,0.00431,0.2912,0.0442,9.853,4,1,7,7,-1
1771240810.6960196,21.9846,37.7548,-2.1407,-0.000167,0.002057,-0.751699,-0.659503,0.3843,-0.0028,0.0031,0.00205,-0.00381,0.0013,0.0739,-0.0913,9.8517,4,1,7,7,-1
1771240810.743771,21.9823,37.7741,-2.1405,-0.000152,0.001923,-0.751678,-0.659528,0.3934,-0.0063,0.0013,0.00257,0.00758,-0.00109,0.1531,0.0854,9.7002,4,1,7,7,-1
1771240810.7975667,21.9801,37.7939,-2.1404,-0.000174,0.00185,-0.751612,-0.659603,0.402,-0.0067,0.0017,0.00275,-0.00198,-0.00412,0.2057,0.0467,9.8298,4,1,7,7,-1
1771240810.8427677,21.9776,37.8142,-2.1402,-9.8e-05,0.001752,-0.751596,-0.659621,0.4166,-0.0023,0.0034,-0.00066,0.01136,0.00033,0.3396,0.1024,9.8358,4,1,7,7,-1
1771240810.8996751,21.975,37.8351,-2.14,2.8e-05,0.001689,-0.751615,-0.6596,0.4284,-0.0022,0.004,-0.0021,0.0118,0.00141,0.2955,-0.061,9.849,4,1,7,7,-1
1771240810.9451723,21.973,37.8529,-2.1403,8.2e-05,0.001665,-0.751613,-0.659603,0.429,-0.0019,0.0032,-0.00035,0.00181,-0.00142,0.2047,-0.0801,9.805,4,1,7,7,-1
1771240811.0027785,21.9704,37.8745,-2.1402,0.000107,0.001651,-0.751563,-0.65966,0.4422,-0.009,0.0017,0.0023,0.00233,-0.00417,0.3793,-0.2126,9.8021,4,1,7,7,-1
1771240811.0451121,21.968,37.8969,-2.1401,5.8e-05,0.001592,-0.751488,-0.659745,0.4556,-0.0097,0.0007,0.00236,-0.0045,-0.00466,0.2996,0.1024,9.8353,4,1,7,7,-1
1771240811.0966482,21.9654,37.9199,-2.14,3.8e-05,0.001597,-0.751436,-0.659804,0.4702,-0.0059,0.0006,-0.0,0.00219,-0.00136,0.3125,0.0027,9.8499,4,1,7,7,-1
1771240811.1489992,21.9627,37.9436,-2.1399,5.2e-05,0.001553,-0.751428,-0.659813,0.4845,-0.0087,0.0005,0.00085,0.00827,-0.00069,0.33,0.0988,9.7877,4,1,7,7,-1
1771240811.1991339,21.9617,37.9627,-2.1425,3e-06,0.001531,-0.751399,-0.659847,0.4935,-0.0126,-0.0011,0.00237,-0.00738,-0.00257,0.3291,-0.0413,9.8541,4,1,7,7,-1
1771240811.243657,21.959,37.9877,-2.1425,-0.000112,0.001572,-0.751314,-0.659943,0.5107,-0.0133,-0.0013,0.00175,-0.00773,-0.00554,0.2814,-0.0972,9.77,4,1,7,7,-1
1771240811.2975757,21.9563,38.0136,-2.1425,-0.000115,0.001523,-0.751224,-0.660046,0.5307,-0.0127,-0.0014,0.00074,0.0109,-0.00472,0.4818,0.0433,9.8317,4,1,7,7,-1
1771240811.3505185,21.9533,38.0402,-2.1425,-0.000259,0.001657,-0.751181,-0.660094,0.5416,-0.0084,-0.0018,-0.00138,-0.00981,-0.00214,0.318,-0.1037,9.8194,4,1,7,7,-1
1771240811.3941762,21.9502,38.0676,-2.1426,-0.000342,0.001709,-0.751149,-0.66013,0.5613,-0.0127,-0.0034,0.00176,-0.00271,-0.00121,0.4191,-0.1839,9.7925,4,1,7,7,-1
1771240811.4428892,21.9492,38.0954,-2.1455,-0.00044,0.001727,-0.751073,-0.660216,0.5766,-0.0148,-0.0069,0.00285,-0.00024,-0.00531,0.4967,-0.0668,9.7957,4,1,7,7,-1
1771240811.4923282,21.9465,38.1246,-2.1458,-0.000604,0.001697,-0.750997,-0.660304,0.5919,-0.0234,-0.0064,0.00528,-0.00657,-0.00427,0.2863,-0.0584,9.8834,4,1,7,7,-1
1771240811.5453026,21.9437,38.1544,-2.1459,-0.000625,0.001618,-0.750919,-0.660392,0.6049,-0.0204,-0.002,0.00247,-0.00097,-0.00247,0.2286,-0.0702,9.9869,4,1,7,7,-1
1771240811.596881,21.9408,38.1849,-2.1459,-0.000705,0.001525,-0.750861,-0.660459,0.621,-0.0217,-0.0024,0.00601,0.00685,-0.00315,0.398,0.0447,9.7903,4,1,7,7,-1
1771240811.6472297,21.9379,38.2163,-2.146,-0.00067,0.00129,-0.750816,-0.66051,0.6414,-0.0205,-0.0045,0.00455,0.01114,-0.00253,0.3788,0.2102,9.7952,4,1,7,7,-1
1771240811.698304,21.9348,38.2484,-2.1461,-0.000867,0.001377,-0.750732,-0.660605,0.652,-0.02,-0.0036,0.00258,-0.00412,-0.00694,0.3517,-0.0767,9.7758,4,1,7,7,-1
1771240811.7424865,21.9323,38.2852,-2.1471,-0.001022,0.001412,-0.750604,-0.66075,0.6646,-0.0203,-0.0058,0.00422,-0.00973,-0.00692,0.3697,-0.0114,9.8039,4,1,7,7,-1
1771240811.7926848,21.9289,38.3187,-2.1473,-0.001139,0.001419,-0.75053,-0.660834,0.6812,-0.0153,-0.0043,0.00239,-0.01224,-0.00289,0.2958,0.0577,9.9201,4,1,7,7,-1
1771240811.8420198,21.9253,38.353,-2.1474,-0.00114,0.001439,-0.750474,-0.660897,0.6997,-0.0155,-0.005,6e-05,0.00338,-0.00164,0.2768,-0.1115,9.6951,4,1,7,7,-1
1771240811.8938193,21.9217,38.3881,-2.1475,-0.001185,0.001456,-0.750416,-0.660963,0.7125,-0.0188,-0.0045,1e-05,-0.00093,-0.00418,0.2301,-0.0628,9.8292,4,1,7,7,-1
1771240811.9441342,21.918,38.424,-2.1475,-0.001264,0.001492,-0.750324,-0.661067,0.7318,-0.0159,-0.0047,0.00023,0.01418,-0.0058,0.5916,0.1083,9.7592,4,1,7,7,-1
1771240811.9940228,21.915,38.4666,-2.1474,-0.001483,0.001742,-0.750212,-0.661194,0.7351,-0.0121,-0.0054,-0.00163,-0.01266,-0.00709,0.3813,0.0579,9.7137,4,1,7,7,-1
1771240812.042322,21.9108,38.5035,-2.1474,-0.001582,0.001921,-0.750089,-0.661332,0.749,-0.0085,-0.0054,-0.00402,-0.01597,-0.00944,0.3929,-0.0263,9.8392,4,1,7,7,-1
1771240812.0941696,21.9065,38.5411,-2.1475,-0.001623,0.002127,-0.749962,-0.661476,0.7629,-0.0092,-0.0048,-0.00622,-0.00761,-0.0058,0.2752,-0.0732,9.7961,4,1,7,7,-1
1771240812.142929,21.9021,38.5793,-2.1475,-0.001651,0.002355,-0.749884,-0.661563,0.7761,-0.0097,-0.0048,-0.00661,-0.00379,-0.00487,0.3575,-0.1457,9.8517,4,1,7,7,-1
1771240812.1941478,21.8979,38.6182,-2.1475,-0.001717,0.002497,-0.749825,-0.66163,0.7912,-0.017,-0.0031,-0.00051,0.0022,-0.00541,0.4262,-0.222,9.8879,4,1,7,7,-1
1771240812.2443197,21.8938,38.6579,-2.1475,-0.001723,0.002479,-0.749722,-0.661746,0.803,-0.0142,-0.0052,0.00118,-0.00281,-0.0083,0.3232,0.1308,9.8331,4,1,7,7,-1
1771240812.292081,21.8894,38.6981,-2.1475,-0.001967,0.002831,-0.74958,-0.661905,0.8174,-0.0065,-0.0066,-0.00785,-0.00679,-0.01153,0.425,0.1176,9.7664,4,1,7,7,-1
1771240812.3432412,21.8809,38.7463,-2.145,-0.001873,0.002908,-0.749436,-0.662068,0.833,-0.0122,-0.0059,-0.00236,-0.02522,-0.00531,-0.0775,0.0731,9.8118,4,1,7,7,-1
1771240812.395735,21.8762,38.788,-2.145,-0.001958,0.003108,-0.749349,-0.662165,0.8454,-0.0102,-0.005,-0.00512,-0.00632,-0.00162,0.0194,-0.2706,9.8818,4,1,7,7,-1
1771240812.4465783,21.8715,38.8302,-2.1448,-0.002049,0.003308,-0.749302,-0.662217,0.8546,-0.0166,-0.0028,-0.00253,-0.00409,-0.00431,0.1944,-0.2618,9.8643,4,1,7,7,-1
1771240812.4919398,21.8673,38.8732,-2.1446,-0.002103,0.003313,-0.749213,-0.662318,0.8717,-0.0269,0.0004,0.00391,0.01106,-0.00473,0.5186,-0.1261,9.9045,4,1,7,7,-1
1771240812.5559826,21.8632,38.9169,-2.1442,-0.002181,0.003253,-0.749099,-0.662447,0.8872,-0.0251,0.0016,0.0044,0.0165,-0.0076,0.6279,0.0716,9.7296,4,1,7,7,-1
1771240812.5930443,21.8532,38.9687,-2.1406,-0.002268,0.003204,-0.748992,-0.662568,0.8992,-0.0199,0.0021,0.00518,0.01918,-0.00649,0.5737,0.0903,9.7439,4,1,7,7,-1
1771240812.651963,21.8486,39.0137,-2.1401,-0.002299,0.003093,-0.7489,-0.662672,0.9095,-0.0171,-0.0002,0.00347,0.00088,-0.00618,0.3447,0.2711,9.6114,4,1,7,7,-1
1771240812.6932185,21.8439,39.0591,-2.1398,-0.002455,0.003174,-0.748783,-0.662803,0.9178,-0.0144,-0.0025,0.0012,-0.01316,-0.00723,0.3358,0.0702,9.7796,4,1,7,7,-1
1771240812.7492995,21.839,39.1052,-2.1396,-0.002544,0.003253,-0.748669,-0.662931,0.9338,-0.0122,-0.0051,0.00167,-0.01294,-0.00655,0.2561,0.1853,9.7239,4,1,7,7,-1
1771240812.794413,21.834,39.152,-2.1395,-0.002686,0.003348,-0.748551,-0.663063,0.9516,-0.0148,-0.0064,0.00107,0.00032,-0.00688,0.4494,0.148,9.8292,4,1,7,7,-1
1771240812.8471506,21.8262,39.1994,-2.1391,-0.002753,0.003316,-0.748444,-0.663185,0.9708,-0.0174,-0.0053,0.00314,0.01037,-0.00605,0.5246,-0.0349,9.8716,4,1,7,7,-1
1771240812.893558,21.8211,39.2479,-2.139,-0.002698,0.003162,-0.748328,-0.663316,0.9829,-0.0196,-0.0045,0.00505,0.00604,-0.00529,0.3126,-0.1759,9.839,4,1,7,7,-1
1771240812.953903,21.8163,39.2971,-2.1388,-0.002806,0.00309,-0.748209,-0.663449,0.9974,-0.0219,-0.0058,0.00411,0.00993,-0.00752,0.3523,0.1147,9.6513,4,1,7,7,-1
1771240812.993743,21.8113,39.3471,-2.1387,-0.002877,0.003052,-0.748111,-0.663561,1.0096,-0.0232,-0.0068,0.00094,-0.00176,-0.0064,0.4369,-0.1338,9.8253,4,1,7,7,-1
1771240813.0515344,21.8063,39.3978,-2.1387,-0.002905,0.002919,-0.747979,-0.663709,1.0288,-0.0264,-0.0087,0.00509,0.0156,-0.00651,0.4936,-0.398,9.7268,4,1,7,7,-1
1771240813.1136901,21.799,39.4464,-2.1391,-0.00305,0.002799,-0.747825,-0.663883,1.0345,-0.0187,-0.0098,0.00744,0.00637,-0.00962,0.5066,0.0644,9.9427,4,1,7,7,-1
1771240813.152656,21.7938,39.4981,-2.1391,-0.003278,0.002771,-0.747712,-0.66401,1.0448,-0.0207,-0.0105,0.00691,-0.00049,-0.00778,0.3908,-0.1134,9.7116,4,1,7,7,-1
1771240813.1999815,21.7888,39.5505,-2.1392,-0.003392,0.002553,-0.747598,-0.664138,1.0611,-0.0231,-0.0125,0.01188,0.00663,-0.00673,0.5488,0.0015,9.657,4,1,7,7,-1
1771240813.245056,21.7837,39.6035,-2.1393,-0.003472,0.00234,-0.747495,-0.664254,1.0663,-0.0177,-0.0097,0.00679,-0.0062,-0.01039,0.066,0.2683,9.9129,4,1,7,7,-1
1771240813.292163,21.7785,39.657,-2.1394,-0.003693,0.002335,-0.747342,-0.664426,1.0822,-0.0198,-0.009,0.00669,-0.00842,-0.0103,0.3379,0.3439,9.8262,4,1,7,7,-1
1771240813.3420825,21.7741,39.7108,-2.1418,-0.003852,0.002108,-0.747172,-0.664617,1.0974,-0.0251,-0.0134,0.01155,-0.0143,-0.00796,0.1454,0.5186,9.635,4,1,5,7,-1
1771240813.3927886,21.7686,39.7659,-2.142,-0.003791,0.001897,-0.74704,-0.664766,1.1114,-0.0102,-0.0121,0.00535,-0.00776,-0.0075,0.0052,0.4871,9.7116,4,1,5,7,-1
1771240813.443696,21.7631,39.8214,-2.1421,-0.004025,0.0019,-0.746945,-0.664871,1.1176,-0.0163,-0.0105,0.00912,-0.03539,-0.00493,0.2362,0.9112,9.7736,4,1,5,7,-1
1771240813.496239,21.7575,39.8777,-2.1422,-0.003973,0.00168,-0.746814,-0.665019,1.1401,-0.0248,-0.0113,0.00619,0.01137,-0.00248,0.1818,0.0216,9.7425,4,1,5,7,-1
1771240813.5449784,21.752,39.9348,-2.1423,-0.004105,0.001591,-0.746653,-0.665199,1.1607,-0.024,-0.0119,0.00384,0.03948,-0.01034,0.534,0.1245,9.8041,4,1,5,7,-1
1771240813.5988312,21.7463,39.9928,-2.1424,-0.004112,0.00149,-0.746515,-0.665354,1.1721,-0.0199,-0.011,-0.00026,0.00489,-0.00915,0.4308,0.139,9.8842,4,1,5,7,-1
1771240813.642904,21.7413,40.0486,-2.146,-0.003917,0.001411,-0.746386,-0.6655,1.1792,-0.0042,-0.0162,-0.00778,0.01397,-0.00744,0.4252,-0.0682,9.7716,4,1,5,7,-1
1771240813.694202,21.7344,40.1074,-2.1464,-0.00357,0.001472,-0.746281,-0.66562,1.1906,0.0071,-0.0187,-0.01388,0.01666,-0.0077,0.6256,0.1074,9.635,4,1,5,7,-1
1771240813.747514,21.7272,40.1668,-2.1469,-0.00323,0.00158,-0.746176,-0.665739,1.1967,0.0059,-0.0187,-0.01104,-0.00243,-0.0077,0.305,-0.1308,9.6239,4,1,5,5,-1
1771240813.7975268,21.72,40.2266,-2.1474,-0.002849,0.001568,-0.746014,-0.665922,1.2115,0.0067,-0.0188,-0.01031,0.00388,-0.00844,0.064,-0.0353,9.6805,4,1,5,5,-1
1771240813.8418243,21.7127,40.2871,-2.148,-0.002468,0.001644,-0.745854,-0.666103,1.2218,0.011,-0.0173,-0.01269,-0.00373,-0.00809,-0.0866,0.0186,9.9376,4,1,5,5,-1
1771240813.8925545,21.7052,40.348,-2.1485,-0.002263,0.00201,-0.745758,-0.66621,1.2349,0.0149,-0.0172,-0.0158,-4e-05,-0.00527,0.2948,-0.0043,9.8702,4,1,5,5,-1
1771240813.9427204,21.6977,40.4096,-2.149,-0.001893,0.002169,-0.745676,-0.666303,1.2479,0.0095,-0.015,-0.01173,0.00967,-0.00558,0.2684,0.017,9.8536,4,1,7,7,-1
1771240813.9954562,21.6957,40.4704,-2.1513,-0.001674,0.00225,-0.745576,-0.666415,1.2521,-0.0018,-0.0059,-0.00576,0.00578,-0.00743,0.4416,-0.103,10.0562,4,1,7,7,-1
1771240814.0517,21.6891,40.5329,-2.151,-0.001713,0.002418,-0.745424,-0.666584,1.2629,-0.0092,-0.0019,-0.00046,-0.01579,-0.00889,0.3081,-0.1542,9.8434,4,1,7,7,-1
1771240814.093505,21.6827,40.5964,-2.1509,-0.001763,0.002437,-0.745267,-0.666759,1.2854,-0.0157,-0.009,0.00445,-0.01039,-0.0077,0.3149,0.0163,9.5767,4,1,7,7,-1
1771240814.1428032,21.6766,40.6609,-2.1511,-0.001515,0.002122,-0.745111,-0.666936,1.3051,-0.0202,-0.0129,0.00347,0.01747,-0.01,0.3858,0.0635,9.6902,4,1,7,7,-1
1771240814.1922626,21.6775,40.7132,-2.1531,-0.001433,0.001998,-0.744916,-0.667153,1.305,-0.0255,-0.0157,-0.00049,0.00339,-0.01065,0.2718,0.2889,9.6712,4,1,7,7,-1
1771240814.2422879,21.6718,40.7785,-2.1536,-0.001359,0.001881,-0.744705,-0.667389,1.3121,-0.0333,-0.0129,0.00286,0.0003,-0.01441,0.1126,0.1216,10.0192,4,1,7,7,-1
1771240814.2953982,21.6664,40.844,-2.1538,-0.001472,0.001845,-0.744453,-0.667671,1.3171,-0.0393,-0.0094,0.00537,-0.00606,-0.01484,0.2847,-0.3413,9.5521,4,1,7,7,-1
1771240814.3423147,21.6611,40.91,-2.1539,-0.001428,0.001673,-0.74415,-0.668009,1.3292,-0.0381,-0.0084,0.00561,-0.01866,-0.01493,-0.0107,-0.5411,9.7258,4,1,7,7,-1
1771240814.3924718,21.656,40.9767,-2.1541,-0.001497,0.001542,-0.743856,-0.668336,1.3442,-0.0418,-0.01,0.01069,0.0024,-0.01579,0.1975,-0.4969,9.7333,4,1,7,7,-1
1771240814.4419286,21.6519,41.0412,-2.1535,-0.001277,0.001069,-0.743552,-0.668677,1.3438,-0.0419,0.0002,0.00788,0.01122,-0.01841,-0.12,0.1514,9.7672,4,1,7,7,-1
1771240814.4945486,21.647,41.1082,-2.1532,-0.001513,0.001136,-0.743264,-0.668995,1.3452,-0.0382,-0.0022,0.00767,-0.03731,-0.0148,0.0783,-0.1727,9.5774,4,1,7,7,-1
1771240814.543599,21.6423,41.176,-2.1535,-0.001458,0.000748,-0.742997,-0.669293,1.3715,-0.0508,-0.019,0.01448,0.03188,-0.01647,0.4871,-0.0206,9.4052,4,1,5,5,-1
1771240814.5975735,21.6379,41.2445,-2.1542,-0.001409,0.000334,-0.74272,-0.6696,1.3673,-0.0488,-0.0151,0.00782,-0.01326,-0.01969,-0.3947,0.2553,10.019,4,1,5,5,-1
1771240814.6454694,21.6333,41.3127,-2.1546,-0.001609,0.000315,-0.742397,-0.669958,1.3663,-0.0496,-0.0087,0.00741,0.00123,-0.02002,0.1717,-0.2358,9.8271,4,1,5,5,-1
1771240814.6978247,21.6289,41.3814,-2.1549,-0.001748,0.000185,-0.742043,-0.67035,1.3844,-0.0478,-0.0095,0.00808,-0.01192,-0.02008,0.3634,0.0919,9.9551,4,1,5,5,-1
1771240814.7455814,21.6266,41.4442,-2.1522,-0.001705,-4.7e-05,-0.741711,-0.670717,1.4034,-0.041,-0.0048,0.00498,-0.00515,-0.01727,-0.1133,0.239,9.8117,4,1,5,5,-1
1771240814.7978716,21.6216,41.5144,-2.1522,-0.00165,-0.000161,-0.741389,-0.671074,1.4112,-0.0384,-0.0007,0.00443,0.00687,-0.01845,0.0844,-0.1085,10.0817,4,1,5,5,-1
1771240814.847331,21.6167,41.5849,-2.1521,-0.001667,-0.000244,-0.741075,-0.67142,1.4173,-0.0384,-0.0037,0.00319,0.01737,-0.0208,0.2837,0.2797,9.6357,4,1,5,5,-1
1771240814.896577,21.6118,41.6558,-2.1521,-0.001616,-0.000283,-0.740771,-0.671755,1.4219,-0.0338,-0.0034,0.00151,-0.01756,-0.01647,-0.0301,0.333,9.8534,4,1,5,5,-1
1771240814.950264,21.6068,41.7272,-2.1523,-0.001552,-0.00034,-0.740423,-0.672139,1.4411,-0.0392,-0.0064,0.00189,0.02398,-0.02065,0.275,0.2883,9.9144,4,1,7,7,-1
1771240814.998732,21.6065,41.8027,-2.15,-0.001675,-0.000449,-0.740091,-0.672504,1.4504,-0.0511,-0.0087,0.00648,0.00907,-0.02019,0.1488,0.038,9.8078,4,1,7,7,-1
1771240815.0475335,21.6019,41.8753,-2.1503,-0.0017,-0.000518,-0.739739,-0.672892,1.4586,-0.0448,-0.0092,0.00024,-0.00629,-0.01849,0.1488,0.1029,9.6923,4,1,7,7,-1
1771240815.1032207,21.5971,41.9485,-2.1506,-0.001766,-0.000456,-0.739391,-0.673273,1.4719,-0.0444,-0.0092,0.00197,-0.00062,-0.01758,-0.1028,-0.24,9.7639,4,1,7,7,-1
1771240815.1444464,21.5928,42.0221,-2.1508,-0.001831,-0.000615,-0.739088,-0.673607,1.4837,-0.0502,-0.0025,0.00743,0.03375,-0.02239,0.5293,0.3166,10.0335,4,1,7,7,-1
1771240815.2050939,21.5883,42.0963,-2.1507,-0.001922,-0.000545,-0.738786,-0.673937,1.49,-0.042,-0.0022,-0.00422,-0.02075,-0.01867,0.2864,0.3579,9.8563,4,1,7,7,-1
1771240815.2446172,21.5837,42.171,-2.1507,-0.001924,-0.000428,-0.738415,-0.674343,1.4993,-0.0433,-0.0037,-0.00307,0.00326,-0.02078,0.1379,0.3013,9.8335,4,1,7,7,-1
1771240815.303435,21.5789,42.246,-2.1507,-0.001875,-0.000289,-0.738023,-0.674773,1.5099,-0.0289,-0.0034,-0.00906,0.00552,-0.02294,0.4021,0.559,9.9285,4,1,7,7,-1
1771240815.344967,21.5753,42.3165,-2.1522,-0.001904,0.000217,-0.73766,-0.675169,1.5095,-0.0124,-0.011,-0.01662,-0.01395,-0.01964,0.0949,0.384,9.5928,4,1,7,7,-1
1771240815.392861,21.5694,42.3919,-2.1524,-0.00207,0.000917,-0.737322,-0.675537,1.5239,-0.0238,-0.0105,-0.01361,-0.00761,-0.02025,0.44,-0.4577,9.8668,4,1,7,7,-1
1771240815.4489894,21.5644,42.4684,-2.1525,-0.002159,0.001145,-0.736954,-0.675938,1.5402,-0.0449,-0.0099,-0.0016,-0.00323,-0.02297,0.4303,-0.4382,9.9035,4,1,7,7,-1
1771240815.4926257,21.5601,42.5456,-2.1526,-0.002268,0.001289,-0.736531,-0.676399,1.5472,-0.0512,-0.0073,-0.00347,-0.01963,-0.02478,0.105,-0.2947,9.8859,4,1,7,7,-1
1771240815.5437334,21.5575,42.6259,-2.1524,-0.002299,0.001346,-0.736108,-0.676859,1.5605,-0.0529,-0.0033,-0.00152,0.02196,-0.02519,0.3978,-0.2211,9.9821,4,1,7,5,-1
