Topic:,/fixposition/fpa/odometry
time,pos_x,pos_y,pos_z,qx,qy,qz,qw,vel_x,vel_y,vel_z,ang_vel_x,ang_vel_y,ang_vel_z,acc_x,acc_y,acc_z
1771240778.4432716,1055205.5271,6125690.225,1424218.7383,0.50373,0.367006,0.566107,-0.539523,-0.0002,-0.0006,-0.0005,-0.00085,0.00434,0.00061,0.0048,-0.089,9.8083
1771240778.4935043,1055205.5271,6125690.225,1424218.7383,0.50373,0.367006,0.566107,-0.539523,-0.0002,-0.0006,-0.0005,0.00032,0.00127,0.00025,0.0176,-0.0833,9.8076
1771240778.5512714,1055205.5271,6125690.225,1424218.7383,0.50373,0.367006,0.566107,-0.539523,-0.0002,-0.0006,-0.0005,0.00192,-0.00264,-0.0001,-0.0069,-0.0951,9.7963
1771240778.5927749,1055205.5271,6125690.225,1424218.7383,0.50373,0.367006,0.566107,-0.539523,-0.0002,-0.0006,-0.0005,-0.00062,-4e-05,-0.00047,-0.0052,-0.1043,9.8028
1771240778.644712,1055205.5271,6125690.225,1424218.7383,0.50373,0.367006,0.566107,-0.539523,-0.0002,-0.0006,-0.0005,-0.00043,0.00153,-0.00036,0.011,-0.1025,9.8073
1771240778.6930008,1055205.5271,6125690.225,1424218.7383,0.50373,0.367006,0.566107,-0.539523,-0.0002,-0.0006,-0.0005,0.00071,0.00039,-7e-05,0.009,-0.0895,9.799
1771240778.7466023,1055205.5269,6125690.2249,1424218.7384,0.503746,0.367039,0.566087,-0.539508,-0.0006,-0.0006,-0.0005,-0.00188,0.00328,0.0002,-0.0034,-0.0828,9.8106
1771240778.793012,1055205.5269,6125690.2249,1424218.7384,0.503746,0.367039,0.566087,-0.539508,-0.0006,-0.0006,-0.0005,0.00071,-0.00072,-3e-05,-0.0004,-0.0863,9.8102
1771240778.8503046,1055205.5269,6125690.2249,1424218.7384,0.503746,0.367039,0.566087,-0.539508,-0.0006,-0.0006,-0.0005,0.00181,-0.00187,1e-05,0.0005,-0.0864,9.8041
1771240778.8944654,1055205.5269,6125690.2249,1424218.7384,0.503746,0.367039,0.566087,-0.539508,-0.0006,-0.0006,-0.0005,0.00037,0.0019,0.00021,0.0118,-0.0974,9.8021
1771240778.9532871,1055205.5269,6125690.2249,1424218.7384,0.503746,0.367039,0.566087,-0.539508,-0.0006,-0.0006,-0.0005,-0.00116,0.002,-0.00028,-0.0001,-0.089,9.8108
1771240778.9962635,1055205.5271,6125690.2239,1424218.7383,0.503748,0.367065,0.566073,-0.539502,-0.0002,-0.0008,-0.0011,0.00084,-0.00493,-0.00056,0.0004,-0.077,9.7986
1771240779.0449696,1055205.5271,6125690.2239,1424218.7383,0.503748,0.367065,0.566073,-0.539502,-0.0002,-0.0008,-0.0011,0.0006,-0.00124,6e-05,0.0032,-0.0969,9.8156
1771240779.0926464,1055205.5271,6125690.2239,1424218.7383,0.503748,0.367065,0.566073,-0.539502,-0.0002,-0.0008,-0.0011,0.00042,-0.00053,-0.00048,-0.0017,-0.0943,9.8116
1771240779.142785,1055205.5271,6125690.2239,1424218.7383,0.503748,0.367065,0.566073,-0.539502,-0.0002,-0.0008,-0.0011,-0.00039,-0.00061,-0.00013,0.0024,-0.1093,9.8059
1771240779.1939332,1055205.5271,6125690.2239,1424218.7383,0.503748,0.367065,0.566073,-0.539502,-0.0002,-0.0008,-0.0011,0.00081,-0.00361,-0.00017,0.0047,-0.0832,9.8045
1771240779.2418902,1055205.5271,6125690.2233,1424218.7385,0.50377,0.367165,0.56599,-0.539501,-0.0007,-0.0002,-0.0015,2e-05,-0.0015,-0.0003,0.01,-0.0958,9.8181
1771240779.291989,1055205.5271,6125690.2233,1424218.7385,0.50377,0.367165,0.56599,-0.539501,-0.0007,-0.0002,-0.0015,-0.00052,-0.00334,-0.00056,0.0073,-0.0909,9.8113
1771240779.3417597,1055205.5271,6125690.2233,1424218.7385,0.50377,0.367165,0.56599,-0.539501,-0.0007,-0.0002,-0.0015,0.00071,-0.0016,-0.00058,-0.0028,-0.0958,9.8109
1771240779.3923776,1055205.5271,6125690.2233,1424218.7385,0.50377,0.367165,0.56599,-0.539501,-0.0007,-0.0002,-0.0015,-0.00013,0.0006,0.00025,0.0102,-0.0923,9.8012
1771240779.4469643,1055205.5271,6125690.2233,1424218.7385,0.50377,0.367165,0.56599,-0.539501,-0.0007,-0.0002,-0.0015,-0.00016,-0.00069,0.00047,-0.0004,-0.0965,9.8095
1771240779.4957483,1055205.5271,6125690.2233,1424218.7385,0.50377,0.367165,0.56599,-0.539501,-0.0007,-0.0002,-0.0015,0.00075,-0.00185,-9e-05,0.0054,-0.0916,9.8067
1771240779.5424602,1055205.527,6125690.2229,1424218.7386,0.503837,0.367266,0.565916,-0.539448,-0.0005,-0.0014,-0.0014,0.00079,-0.00022,-0.0004,0.0076,-0.0996,9.8101
1771240779.5927632,1055205.527,6125690.2229,1424218.7386,0.503837,0.367266,0.565916,-0.539448,-0.0005,-0.0014,-0.0014,0.00037,-0.00109,0.00016,-0.0112,-0.0955,9.806
1771240779.6434577,1055205.527,6125690.2229,1424218.7386,0.503837,0.367266,0.565916,-0.539448,-0.0005,-0.0014,-0.0014,0.00069,0.00011,0.00039,-0.001,-0.0977,9.8038
1771240779.7204032,1055205.527,6125690.2229,1424218.7386,0.503837,0.367266,0.565916,-0.539448,-0.0005,-0.0014,-0.0014,-0.00056,0.0004,-0.0004,0.0129,-0.0828,9.8162
1771240779.743325,1055205.527,6125690.2229,1424218.7386,0.503837,0.367266,0.565916,-0.539448,-0.0005,-0.0014,-0.0014,0.00013,0.0027,-0.0002,-0.0004,-0.093,9.8007
1771240779.7956393,1055205.5272,6125690.2223,1424218.7384,0.503835,0.367256,0.565914,-0.539458,-0.0008,-0.0012,-0.0011,0.0016,-0.00428,-0.00074,-0.0026,-0.0944,9.8226
1771240779.84212,1055205.5272,6125690.2223,1424218.7384,0.503835,0.367256,0.565914,-0.539458,-0.0008,-0.0012,-0.0011,0.00089,-0.00052,0.00015,0.0035,-0.1021,9.8127
1771240779.892741,1055205.5272,6125690.2223,1424218.7384,0.503835,0.367256,0.565914,-0.539458,-0.0008,-0.0012,-0.0011,-0.0012,0.0018,0.0001,0.0045,-0.0968,9.7993
1771240779.9463372,1055205.5272,6125690.2223,1424218.7384,0.503835,0.367256,0.565914,-0.539458,-0.0008,-0.0012,-0.0011,4e-05,0.00162,0.0,0.0013,-0.0922,9.8049
1771240779.992661,1055205.5272,6125690.2223,1424218.7384,0.503835,0.367256,0.565914,-0.539458,-0.0008,-0.0012,-0.0011,0.00018,-0.0004,-0.00066,-0.0007,-0.0893,9.8176
1771240780.0422544,1055205.5273,6125690.2219,1424218.7383,0.503804,0.367226,0.565951,-0.539468,-0.0012,-0.0011,-0.0011,0.00073,0.00061,-0.00012,-0.0006,-0.0756,9.8112
1771240780.0920196,1055205.5273,6125690.2219,1424218.7383,0.503804,0.367226,0.565951,-0.539468,-0.0012,-0.0011,-0.0011,0.00119,-0.00359,-0.00062,0.004,-0.1055,9.8058
1771240780.1419864,1055205.5273,6125690.2219,1424218.7383,0.503804,0.367226,0.565951,-0.539468,-0.0012,-0.0011,-0.0011,-0.00044,-0.00046,-0.00022,0.0033,-0.1069,9.81
1771240780.1941574,1055205.5273,6125690.2219,1424218.7383,0.503804,0.367226,0.565951,-0.539468,-0.0012,-0.0011,-0.0011,0.00129,-0.00145,-0.00015,0.0054,-0.0972,9.805
1771240780.242045,1055205.5273,6125690.2219,1424218.7383,0.503804,0.367226,0.565951,-0.539468,-0.0012,-0.0011,-0.0011,0.00084,-0.00141,-0.00052,-0.0003,-0.1043,9.8103
1771240780.2935352,1055205.5273,6125690.2219,1424218.7383,0.503804,0.367226,0.565951,-0.539468,-0.0012,-0.0011,-0.0011,-0.00013,-0.00076,-0.0005,0.0034,-0.0788,9.8037
1771240780.3419914,1055205.5273,6125690.2216,1424218.7384,0.50379,0.367228,0.565957,-0.539474,-0.0012,-0.0009,-0.0007,-0.00243,0.0036,0.0003,0.0158,-0.1039,9.8118
1771240780.3975673,1055205.5273,6125690.2216,1424218.7384,0.50379,0.367228,0.565957,-0.539474,-0.0012,-0.0009,-0.0007,0.00048,-0.00087,3e-05,0.0039,-0.119,9.8088
1771240780.4422655,1055205.5273,6125690.2216,1424218.7384,0.50379,0.367228,0.565957,-0.539474,-0.0012,-0.0009,-0.0007,-0.00033,-9e-05,-0.00031,0.0119,-0.0997,9.8118
1771240780.5012927,1055205.5273,6125690.2216,1424218.7384,0.50379,0.367228,0.565957,-0.539474,-0.0012,-0.0009,-0.0007,0.00113,0.0002,0.00017,0.01,-0.0969,9.7974
1771240780.548999,1055205.5273,6125690.2216,1424218.7384,0.50379,0.367228,0.565957,-0.539474,-0.0012,-0.0009,-0.0007,-0.00087,0.00238,0.00025,-0.0023,-0.078,9.8117
1771240780.6025958,1055205.5269,6125690.2217,1424218.7383,0.503787,0.367128,0.566036,-0.539461,-0.0013,-0.0016,-0.0003,0.00078,0.00058,0.0002,-0.0128,-0.0891,9.8078
1771240780.6418338,1055205.5269,6125690.2217,1424218.7383,0.503787,0.367128,0.566036,-0.539461,-0.0013,-0.0016,-0.0003,0.0021,-0.00343,-0.00053,-0.0019,-0.095,9.8057
1771240780.699743,1055205.5269,6125690.2217,1424218.7383,0.503787,0.367128,0.566036,-0.539461,-0.0013,-0.0016,-0.0003,0.00063,-0.00259,-0.00058,0.0052,-0.0797,9.8271
1771240780.7424974,1055205.5269,6125690.2217,1424218.7383,0.503787,0.367128,0.566036,-0.539461,-0.0013,-0.0016,-0.0003,0.00078,-0.00154,-0.00022,0.0247,-0.1086,9.8079
1771240780.797447,1055205.5269,6125690.2217,1424218.7383,0.503787,0.367128,0.566036,-0.539461,-0.0013,-0.0016,-0.0003,-0.00021,0.00206,-3e-05,0.0046,-0.0903,9.7854
1771240780.8442612,1055205.527,6125690.2217,1424218.7382,0.503752,0.367114,0.566053,-0.539487,-0.0018,-0.0014,-0.0011,0.00448,-0.00244,0.00058,-0.0094,-0.1025,9.7711
1771240780.9017296,1055205.527,6125690.2217,1424218.7382,0.503752,0.367114,0.566053,-0.539487,-0.0018,-0.0014,-0.0011,-0.00141,0.00773,0.0008,-0.0084,-0.0998,9.8117
1771240780.9432318,1055205.527,6125690.2217,1424218.7382,0.503752,0.367114,0.566053,-0.539487,-0.0018,-0.0014,-0.0011,6e-05,-0.00146,-0.00017,0.005,-0.0649,9.8311
1771240781.0009422,1055205.527,6125690.2217,1424218.7382,0.503752,0.367114,0.566053,-0.539487,-0.0018,-0.0014,-0.0011,0.0003,-0.00152,-0.00013,-0.0014,-0.0996,9.8167
1771240781.0467427,1055205.527,6125690.2217,1424218.7382,0.503752,0.367114,0.566053,-0.539487,-0.0018,-0.0014,-0.0011,0.00095,0.00133,3e-05,0.0484,-0.0745,9.8001
1771240781.1067998,1055205.527,6125690.2217,1424218.7382,0.503752,0.367114,0.566053,-0.539487,-0.0018,-0.0014,-0.0011,-0.00018,-0.00015,-0.00048,-0.0155,-0.0993,9.8249
1771240781.1420531,1055205.5268,6125690.222,1424218.7384,0.503692,0.36708,0.566066,-0.539551,-0.0012,-0.002,-0.0003,0.0005,-0.00426,-0.00106,-0.0082,-0.104,9.8121
1771240781.192559,1055205.5268,6125690.222,1424218.7384,0.503692,0.36708,0.566066,-0.539551,-0.0012,-0.002,-0.0003,0.00045,-0.00395,-0.00069,-0.0004,-0.1159,9.8156
1771240781.241929,1055205.5268,6125690.222,1424218.7384,0.503692,0.36708,0.566066,-0.539551,-0.0012,-0.002,-0.0003,0.00085,0.00193,-0.00013,0.0255,-0.0876,9.8078
1771240781.2929187,1055205.5268,6125690.222,1424218.7384,0.503692,0.36708,0.566066,-0.539551,-0.0012,-0.002,-0.0003,0.00078,-0.00084,0.00013,-0.0085,-0.073,9.8099
1771240781.3427176,1055205.5268,6125690.222,1424218.7384,0.503692,0.36708,0.566066,-0.539551,-0.0012,-0.002,-0.0003,-2e-05,-0.00023,-0.00108,-0.0018,-0.106,9.816
1771240781.3945014,1055205.5269,6125690.2219,1424218.7381,0.503724,0.367143,0.566019,-0.539528,-0.001,0.0006,-0.0003,-0.0004,0.00105,-3e-05,-0.0214,-0.0543,9.8244
1771240781.4421833,1055205.5269,6125690.2219,1424218.7381,0.503724,0.367143,0.566019,-0.539528,-0.001,0.0006,-0.0003,-0.00267,0.00472,0.00106,0.0037,-0.0895,9.8072
1771240781.5017586,1055205.5269,6125690.2219,1424218.7381,0.503724,0.367143,0.566019,-0.539528,-0.001,0.0006,-0.0003,0.00117,-4e-05,0.00049,0.025,-0.1569,9.7598
1771240781.5428088,1055205.5269,6125690.2219,1424218.7381,0.503724,0.367143,0.566019,-0.539528,-0.001,0.0006,-0.0003,-9e-05,0.00031,1e-05,-0.037,0.0096,9.8298
1771240781.5920656,1055205.5269,6125690.2219,1424218.7381,0.503724,0.367143,0.566019,-0.539528,-0.001,0.0006,-0.0003,-0.00186,0.00079,0.00056,0.0039,-0.1029,9.8295
1771240781.6431088,1055205.5269,6125690.2219,1424218.7381,0.503724,0.367143,0.566019,-0.539528,-0.001,0.0006,-0.0003,0.00189,0.00271,-0.00012,-0.0011,-0.1116,9.7854
1771240781.691988,1055205.5266,6125690.2222,1424218.7383,0.503706,0.367085,0.566062,-0.539539,-0.0012,0.0002,-0.0006,-2e-05,-0.00208,-0.00021,-0.0027,-0.056,9.7907
1771240781.7423053,1055205.5266,6125690.2222,1424218.7383,0.503706,0.367085,0.566062,-0.539539,-0.0012,0.0002,-0.0006,-0.00012,0.00077,0.0001,0.0611,-0.1124,9.8167
1771240781.798011,1055205.5266,6125690.2222,1424218.7383,0.503706,0.367085,0.566062,-0.539539,-0.0012,0.0002,-0.0006,0.00109,-0.00029,-0.00011,-0.0081,-0.0738,9.8383
1771240781.8465886,1055205.5266,6125690.2222,1424218.7383,0.503706,0.367085,0.566062,-0.539539,-0.0012,0.0002,-0.0006,-0.00086,0.001,0.00033,-0.0144,-0.111,9.7922
1771240781.8969955,1055205.5266,6125690.2222,1424218.7383,0.503706,0.367085,0.566062,-0.539539,-0.0012,0.0002,-0.0006,0.00042,-0.00032,-0.00082,-0.0035,-0.0973,9.7894
1771240781.9434,1055205.5266,6125690.2222,1424218.7383,0.503706,0.367085,0.566062,-0.539539,-0.0012,0.0002,-0.0006,-0.00082,-0.00091,0.00095,0.0093,-0.0811,9.8161
1771240781.9919248,1055205.5265,6125690.2225,1424218.7385,0.503729,0.367123,0.566041,-0.539515,-0.0016,-0.0011,-0.0016,0.00113,0.00123,-0.0004,0.0223,-0.1125,9.8219
1771240782.042738,1055205.5265,6125690.2225,1424218.7385,0.503729,0.367123,0.566041,-0.539515,-0.0016,-0.0011,-0.0016,6e-05,0.00086,0.0003,-0.0276,-0.0628,9.8059
1771240782.0922837,1055205.5265,6125690.2225,1424218.7385,0.503729,0.367123,0.566041,-0.539515,-0.0016,-0.0011,-0.0016,-0.00135,0.00211,-7e-05,-0.0013,-0.0893,9.7899
1771240782.1431203,1055205.5265,6125690.2225,1424218.7385,0.503729,0.367123,0.566041,-0.539515,-0.0016,-0.0011,-0.0016,0.00061,-0.00057,-0.00017,0.0207,-0.0924,9.811
1771240782.1974046,1055205.5262,6125690.2229,1424218.7386,0.503728,0.367064,0.566045,-0.539551,-0.0001,-0.0016,0.0002,0.00237,-0.00499,-0.00033,0.0151,-0.1062,9.8104
1771240782.2440338,1055205.5262,6125690.2229,1424218.7386,0.503728,0.367064,0.566045,-0.539551,-0.0001,-0.0016,0.0002,0.0017,0.0033,0.00051,-0.0054,-0.0833,9.8046
1771240782.293363,1055205.5262,6125690.2229,1424218.7386,0.503728,0.367064,0.566045,-0.539551,-0.0001,-0.0016,0.0002,-0.00074,-0.00106,-0.00049,-0.0029,-0.0962,9.8072
1771240782.3428817,1055205.5262,6125690.2229,1424218.7386,0.503728,0.367064,0.566045,-0.539551,-0.0001,-0.0016,0.0002,-0.00169,0.00189,-0.00049,0.0065,-0.0779,9.8115
1771240782.391951,1055205.5262,6125690.2229,1424218.7386,0.503728,0.367064,0.566045,-0.539551,-0.0001,-0.0016,0.0002,-0.00125,0.00173,0.00058,0.0048,-0.0954,9.8101
1771240782.4424841,1055205.5262,6125690.2229,1424218.7386,0.503728,0.367064,0.566045,-0.539551,-0.0001,-0.0016,0.0002,0.00162,-0.00237,-0.00032,0.0013,-0.1107,9.8068
1771240782.4979718,1055205.5262,6125690.2227,1424218.7381,0.503725,0.367085,0.566025,-0.53956,-0.0011,-0.0007,-0.0007,0.0012,-0.00177,-1e-05,-0.0033,-0.0779,9.8163
1771240782.5438256,1055205.5262,6125690.2227,1424218.7381,0.503725,0.367085,0.566025,-0.53956,-0.0011,-0.0007,-0.0007,0.00096,0.00071,0.00015,0.0114,-0.1134,9.811
1771240782.5931466,1055205.5262,6125690.2227,1424218.7381,0.503725,0.367085,0.566025,-0.53956,-0.0011,-0.0007,-0.0007,0.00058,0.00089,8e-05,0.0004,-0.0752,9.795
1771240782.6451225,1055205.5262,6125690.2227,1424218.7381,0.503725,0.367085,0.566025,-0.53956,-0.0011,-0.0007,-0.0007,0.00048,-0.00115,-0.00014,-0.0015,-0.1046,9.8092
1771240782.6925707,1055205.5262,6125690.2227,1424218.7381,0.503725,0.367085,0.566025,-0.53956,-0.0011,-0.0007,-0.0007,4e-05,0.00082,0.00028,0.0018,-0.1044,9.8129
1771240782.7489228,1055205.5261,6125690.2229,1424218.7378,0.503741,0.367105,0.566002,-0.539557,-0.0009,-0.0009,-0.0007,-0.00133,0.00377,0.0005,0.0094,-0.0852,9.8057
1771240782.7928267,1055205.5261,6125690.2229,1424218.7378,0.503741,0.367105,0.566002,-0.539557,-0.0009,-0.0009,-0.0007,0.00095,-0.00276,-0.00074,0.0031,-0.0973,9.8065
1771240782.852421,1055205.5261,6125690.2229,1424218.7378,0.503741,0.367105,0.566002,-0.539557,-0.0009,-0.0009,-0.0007,-0.00017,-0.00076,2e-05,-0.0066,-0.0784,9.8069
1771240782.8940902,1055205.5261,6125690.2229,1424218.7378,0.503741,0.367105,0.566002,-0.539557,-0.0009,-0.0009,-0.0007,0.00144,-0.00223,6e-05,0.003,-0.0926,9.8166
1771240782.9494073,1055205.5261,6125690.2229,1424218.7378,0.503741,0.367105,0.566002,-0.539557,-0.0009,-0.0009,-0.0007,-0.00012,0.00031,-6e-05,0.0057,-0.095,9.8099
1771240782.9924777,1055205.5261,6125690.2229,1424218.7378,0.503741,0.367105,0.566002,-0.539557,-0.0009,-0.0009,-0.0007,0.00045,0.00125,0.00021,-0.0006,-0.1052,9.8022
1771240783.0492198,1055205.5261,6125690.2229,1424218.7377,0.503697,0.367049,0.566054,-0.53958,-0.0011,-0.0017,-0.0004,-0.00018,0.00014,4e-05,-0.0042,-0.0888,9.8109
1771240783.0918636,1055205.5261,6125690.2229,1424218.7377,0.503697,0.367049,0.566054,-0.53958,-0.0011,-0.0017,-0.0004,0.0002,0.00044,0.00039,-0.0005,-0.0934,9.8026
1771240783.1490998,1055205.5261,6125690.2229,1424218.7377,0.503697,0.367049,0.566054,-0.53958,-0.0011,-0.0017,-0.0004,-0.00068,0.00292,3e-05,-0.0002,-0.0945,9.8198
1771240783.1928215,1055205.5261,6125690.2229,1424218.7377,0.503697,0.367049,0.566054,-0.53958,-0.0011,-0.0017,-0.0004,-0.0002,0.00023,-0.00027,0.0064,-0.0999,9.8036
1771240783.2608395,1055205.5261,6125690.2229,1424218.7377,0.503697,0.367049,0.566054,-0.53958,-0.0011,-0.0017,-0.0004,0.00126,-0.00206,9e-05,-0.0039,-0.0882,9.801
1771240783.2919378,1055205.5261,6125690.2229,1424218.7375,0.503694,0.367024,0.566071,-0.539582,-0.0011,-0.0007,-0.0003,0.00212,-0.00319,9e-05,0.0065,-0.1003,9.8033
1771240783.3430662,1055205.5261,6125690.2229,1424218.7375,0.503694,0.367024,0.566071,-0.539582,-0.0011,-0.0007,-0.0003,-0.00073,0.00046,-0.00059,0.0095,-0.0828,9.8071
1771240783.394549,1055205.5261,6125690.2229,1424218.7375,0.503694,0.367024,0.566071,-0.539582,-0.0011,-0.0007,-0.0003,-1e-05,9e-05,0.00034,-0.0046,-0.0859,9.8165
1771240783.444143,1055205.5261,6125690.2229,1424218.7375,0.503694,0.367024,0.566071,-0.539582,-0.0011,-0.0007,-0.0003,0.00048,-0.00031,-0.00022,0.0098,-0.1036,9.7972
1771240783.4940972,1055205.5261,6125690.2229,1424218.7375,0.503694,0.367024,0.566071,-0.539582,-0.0011,-0.0007,-0.0003,0.00023,0.00129,0.00048,-0.0076,-0.0924,9.8053
1771240783.5507424,1055205.5261,6125690.2231,1424218.7376,0.503697,0.367002,0.56607,-0.539596,-0.0005,-0.0018,-0.0006,-0.00094,0.00231,-0.00054,0.0085,-0.0956,9.8046
1771240783.5928369,1055205.5261,6125690.2231,1424218.7376,0.503697,0.367002,0.56607,-0.539596,-0.0005,-0.0018,-0.0006,0.00065,-0.00126,-0.00012,-0.0093,-0.0921,9.8097
1771240783.6423583,1055205.5261,6125690.2231,1424218.7376,0.503697,0.367002,0.56607,-0.539596,-0.0005,-0.0018,-0.0006,0.00265,-0.00143,0.00012,-0.0008,-0.0767,9.8228
1771240783.6948512,1055205.5261,6125690.2231,1424218.7376,0.503697,0.367002,0.56607,-0.539596,-0.0005,-0.0018,-0.0006,-0.00046,-0.00219,0.00022,0.0215,-0.1072,9.8005
1771240783.747675,1055205.5261,6125690.2231,1424218.7376,0.503697,0.367002,0.56607,-0.539596,-0.0005,-0.0018,-0.0006,0.00118,-0.00256,-0.00039,0.0021,-0.0762,9.8113
1771240783.792849,1055205.5261,6125690.2231,1424218.7376,0.503697,0.367002,0.56607,-0.539596,-0.0005,-0.0018,-0.0006,0.00122,-0.00288,-0.00015,0.0103,-0.0928,9.8112
1771240783.8489413,1055205.5264,6125690.2234,1424218.738,0.503698,0.367055,0.566048,-0.539582,-0.0007,-0.0012,-0.0011,0.0014,-0.0036,-0.00033,0.0054,-0.0844,9.8097
1771240783.895272,1055205.5264,6125690.2234,1424218.738,0.503698,0.367055,0.566048,-0.539582,-0.0007,-0.0012,-0.0011,-0.00033,8e-05,0.00028,-0.0147,-0.0624,9.8203
1771240783.9459991,1055205.5264,6125690.2234,1424218.738,0.503698,0.367055,0.566048,-0.539582,-0.0007,-0.0012,-0.0011,-0.00087,0.00265,-9e-05,-0.0069,-0.1042,9.8025
1771240783.9927156,1055205.5264,6125690.2234,1424218.738,0.503698,0.367055,0.566048,-0.539582,-0.0007,-0.0012,-0.0011,-0.0006,0.00332,0.00041,-0.0262,-0.0891,9.8157
1771240784.043304,1055205.5264,6125690.2234,1424218.738,0.503698,0.367055,0.566048,-0.539582,-0.0007,-0.0012,-0.0011,0.00092,-0.00178,-0.00016,0.0206,-0.0844,9.8165
1771240784.0937245,1055205.5264,6125690.2234,1424218.7382,0.503721,0.367156,0.56598,-0.539563,0.0005,-0.0008,-0.0008,0.00164,-0.00164,-5e-05,0.0292,-0.0863,9.8103
1771240784.1420906,1055205.5264,6125690.2234,1424218.7382,0.503721,0.367156,0.56598,-0.539563,0.0005,-0.0008,-0.0008,-0.00162,-0.00357,0.0003,-0.0958,-0.0838,9.7803
1771240784.192468,1055205.5264,6125690.2234,1424218.7382,0.503721,0.367156,0.56598,-0.539563,0.0005,-0.0008,-0.0008,-0.00011,0.001,0.00027,-0.0281,-0.0973,9.7982
1771240784.2421737,1055205.5264,6125690.2234,1424218.7382,0.503721,0.367156,0.56598,-0.539563,0.0005,-0.0008,-0.0008,-0.00042,-0.0006,0.00036,-0.0101,-0.0927,9.8076
1771240784.293275,1055205.5264,6125690.2234,1424218.7382,0.503721,0.367156,0.56598,-0.539563,0.0005,-0.0008,-0.0008,-0.00064,0.00272,5e-05,0.0255,-0.1016,9.812
1771240784.3445153,1055205.5264,6125690.2234,1424218.7382,0.503721,0.367156,0.56598,-0.539563,0.0005,-0.0008,-0.0008,-0.00014,0.00164,-0.0001,0.0254,-0.0632,9.8341
1771240784.3917754,1055205.5262,6125690.2233,1424218.7378,0.503716,0.367171,0.565961,-0.539578,-0.0017,-0.0012,-0.0011,0.00044,-0.00282,-0.00027,-0.024,-0.0958,9.7832
1771240784.4436593,1055205.5262,6125690.2233,1424218.7378,0.503716,0.367171,0.565961,-0.539578,-0.0017,-0.0012,-0.0011,-0.00028,-0.00339,-0.00103,0.0068,-0.1036,9.8222
1771240784.4919975,1055205.5262,6125690.2233,1424218.7378,0.503716,0.367171,0.565961,-0.539578,-0.0017,-0.0012,-0.0011,0.00057,-0.0017,-0.0003,0.0161,-0.1215,9.8063
1771240784.5443594,1055205.5262,6125690.2233,1424218.7378,0.503716,0.367171,0.565961,-0.539578,-0.0017,-0.0012,-0.0011,-0.0004,0.00151,0.00033,0.0128,-0.0981,9.8067
1771240784.595886,1055205.5262,6125690.2233,1424218.7378,0.503716,0.367171,0.565961,-0.539578,-0.0017,-0.0012,-0.0011,0.00175,-0.0044,-0.00032,-0.002,-0.0756,9.8087
1771240784.643839,1055205.5268,6125690.2237,1424218.7379,0.503733,0.367215,0.56594,-0.539554,-0.0015,-0.0006,-0.0017,-0.00142,0.00187,0.00015,0.0202,-0.0695,9.7969
1771240784.7003157,1055205.5268,6125690.2237,1424218.7379,0.503733,0.367215,0.56594,-0.539554,-0.0015,-0.0006,-0.0017,-0.00184,-0.00023,-0.00029,0.0145,-0.0703,9.8123
1771240784.7418778,1055205.5268,6125690.2237,1424218.7379,0.503733,0.367215,0.56594,-0.539554,-0.0015,-0.0006,-0.0017,0.00019,-0.0012,2e-05,-0.031,-0.1017,9.8305
1771240784.7959144,1055205.5268,6125690.2237,1424218.7379,0.503733,0.367215,0.56594,-0.539554,-0.0015,-0.0006,-0.0017,-0.00042,-0.00012,0.00017,-0.0089,-0.0996,9.7937
1771240784.842226,1055205.5268,6125690.2237,1424218.7379,0.503733,0.367215,0.56594,-0.539554,-0.0015,-0.0006,-0.0017,-0.00034,0.00071,0.00029,0.0311,-0.086,9.8183
1771240784.8971798,1055205.5268,6125690.2237,1424218.7379,0.503733,0.367215,0.56594,-0.539554,-0.0015,-0.0006,-0.0017,-0.00034,0.00297,7e-05,0.0099,-0.0836,9.7868
1771240784.9426568,1055205.5266,6125690.2236,1424218.738,0.503722,0.36719,0.565968,-0.539552,-0.0008,-0.0015,-0.0014,-0.00032,-0.0003,0.00018,0.0204,-0.0848,9.8091
1771240784.996324,1055205.5266,6125690.2236,1424218.738,0.503722,0.36719,0.565968,-0.539552,-0.0008,-0.0015,-0.0014,-0.00147,-0.00207,0.00017,-0.0513,-0.0724,9.8029
1771240785.0420134,1055205.5266,6125690.2236,1424218.738,0.503722,0.36719,0.565968,-0.539552,-0.0008,-0.0015,-0.0014,0.00013,0.00162,0.00028,0.0576,-0.124,9.7893
1771240785.0954654,1055205.5266,6125690.2236,1424218.738,0.503722,0.36719,0.565968,-0.539552,-0.0008,-0.0015,-0.0014,0.00104,0.0011,-0.00062,0.0275,-0.082,9.7486
1771240785.1448874,1055205.5266,6125690.2236,1424218.738,0.503722,0.36719,0.565968,-0.539552,-0.0008,-0.0015,-0.0014,-0.00049,-0.00512,0.00068,0.0613,-0.0436,9.788
1771240785.2028997,1055205.5271,6125690.2242,1424218.7385,0.503713,0.367127,0.566011,-0.539559,-0.0009,-0.0009,-0.001,-0.0033,0.00824,0.0002,0.0139,-0.1279,9.8014
1771240785.2465937,1055205.5271,6125690.2242,1424218.7385,0.503713,0.367127,0.566011,-0.539559,-0.0009,-0.0009,-0.001,0.00033,-5e-05,-0.00071,0.0557,-0.1286,9.8723
1771240785.3022718,1055205.5271,6125690.2242,1424218.7385,0.503713,0.367127,0.566011,-0.539559,-0.0009,-0.0009,-0.001,0.0001,-0.00279,-0.00026,0.0621,-0.102,9.7629
1771240785.3434892,1055205.5271,6125690.2242,1424218.7385,0.503713,0.367127,0.566011,-0.539559,-0.0009,-0.0009,-0.001,0.00022,0.00127,-0.0009,0.06,-0.076,9.8315
1771240785.4026258,1055205.5271,6125690.2242,1424218.7385,0.503713,0.367127,0.566011,-0.539559,-0.0009,-0.0009,-0.001,-2e-05,-0.00144,-0.00071,0.0482,-0.1101,9.8203
1771240785.4456153,1055205.5272,6125690.2244,1424218.7395,0.50373,0.367093,0.566044,-0.53953,0.008,-0.0027,-0.0001,-0.00037,-0.00049,-0.00107,0.02,-0.0765,9.778
1771240785.4936888,1055205.5272,6125690.2244,1424218.7395,0.50373,0.367093,0.566044,-0.53953,0.008,-0.0027,-0.0001,-0.00023,0.00265,-0.0003,0.035,-0.0946,9.8342
1771240785.548023,1055205.5272,6125690.2244,1424218.7395,0.50373,0.367093,0.566044,-0.53953,0.008,-0.0027,-0.0001,0.00053,-0.00432,-0.00109,-0.0143,-0.0803,9.7987
1771240785.5936823,1055205.5272,6125690.2244,1424218.7395,0.50373,0.367093,0.566044,-0.53953,0.008,-0.0027,-0.0001,3e-05,-0.00186,-0.00129,0.0264,-0.0904,9.8018
1771240785.642026,1055205.5272,6125690.2244,1424218.7395,0.50373,0.367093,0.566044,-0.53953,0.008,-0.0027,-0.0001,0.00118,-0.00208,-0.00103,-0.0117,-0.1047,9.8045
1771240785.698272,1055205.5272,6125690.2244,1424218.7395,0.50373,0.367093,0.566044,-0.53953,0.008,-0.0027,-0.0001,-0.00012,0.00119,-0.0005,0.024,-0.0777,9.8268
1771240785.7418828,1055205.5273,6125690.2243,1424218.7404,0.503703,0.367117,0.566122,-0.539457,0.0108,-0.0018,-0.0004,-0.00186,0.00219,-0.00129,-0.0137,-0.0952,9.7955
1771240785.792164,1055205.5273,6125690.2243,1424218.7404,0.503703,0.367117,0.566122,-0.539457,0.0108,-0.0018,-0.0004,-0.00122,0.00339,-0.00089,0.0263,-0.0795,9.8142
1771240785.847125,1055205.5273,6125690.2243,1424218.7404,0.503703,0.367117,0.566122,-0.539457,0.0108,-0.0018,-0.0004,0.00077,-0.00331,-0.00084,-0.0537,-0.0914,9.8096
1771240785.8920293,1055205.5273,6125690.2243,1424218.7404,0.503703,0.367117,0.566122,-0.539457,0.0108,-0.0018,-0.0004,-0.00071,0.00398,-0.0008,-0.0134,-0.0734,9.8041
1771240785.9441075,1055205.5273,6125690.2243,1424218.7404,0.503703,0.367117,0.566122,-0.539457,0.0108,-0.0018,-0.0004,0.00045,-0.00906,-0.00096,-0.495,0.0522,9.7282
1771240785.9948342,1055205.5275,6125690.2251,1424218.7412,0.503665,0.367147,0.566215,-0.539376,0.0032,-0.0007,-0.0013,-1e-05,0.01555,0.00018,0.2241,0.0147,9.8243
1771240786.0419166,1055205.5275,6125690.2251,1424218.7412,0.503665,0.367147,0.566215,-0.539376,0.0032,-0.0007,-0.0013,-0.00272,0.02063,0.00123,0.1745,-0.1355,9.6736
1771240786.0965385,1055205.5275,6125690.2251,1424218.7412,0.503665,0.367147,0.566215,-0.539376,0.0032,-0.0007,-0.0013,0.00038,-0.00576,-5e-05,-0.1991,-0.0288,9.9487
1771240786.1460328,1055205.5275,6125690.2251,1424218.7412,0.503665,0.367147,0.566215,-0.539376,0.0032,-0.0007,-0.0013,0.0008,-0.00642,0.00039,-0.2747,-0.1638,9.7843
1771240786.1940687,1055205.5275,6125690.2251,1424218.7412,0.503665,0.367147,0.566215,-0.539376,0.0032,-0.0007,-0.0013,9e-05,0.00075,0.00017,-0.0054,-0.0972,9.849
1771240786.2456365,1055205.5272,6125690.2272,1424218.7341,0.503598,0.367127,0.566298,-0.539364,-0.0424,0.0024,-0.0007,-0.00066,0.00222,0.00082,-0.0745,-0.0534,9.8049
1771240786.2921886,1055205.5271,6125690.2277,1424218.732,0.503643,0.367185,0.566236,-0.539348,-0.0443,0.0021,-0.0007,0.00267,-0.00625,-0.00074,0.0418,-0.1059,9.7961
1771240786.3470662,1055205.5271,6125690.2282,1424218.7297,0.503688,0.367236,0.566178,-0.539332,-0.0466,0.0027,-0.0008,3e-05,-0.00121,0.00077,-0.0122,-0.0855,9.8197
1771240786.392762,1055205.527,6125690.2287,1424218.7274,0.503684,0.367212,0.566183,-0.539346,-0.0487,0.0028,-0.0005,-0.00018,-0.00118,0.00054,-0.0553,-0.0917,9.7878
1771240786.4470878,1055205.5269,6125690.2292,1424218.725,0.503708,0.36721,0.566165,-0.539344,-0.0492,0.0025,-0.0008,-0.00081,-0.00095,0.00077,-0.0041,-0.1091,9.8069
1771240786.4955251,1055205.5268,6125690.2298,1424218.7226,0.503728,0.367212,0.56614,-0.539351,-0.05,0.0022,-0.0009,-0.00021,-0.00141,0.00045,-0.0063,-0.0978,9.8026
1771240786.5440457,1055205.5275,6125690.2257,1424218.7413,0.503569,0.367147,0.566281,-0.539395,-0.0183,-0.0,-0.0016,-3e-05,-0.00101,0.00102,-0.0179,-0.0869,9.8105
1771240786.6029952,1055205.5275,6125690.2257,1424218.7413,0.503569,0.367147,0.566281,-0.539395,-0.0183,-0.0,-0.0016,-0.0002,-0.00034,0.0005,0.0008,-0.0988,9.7877
1771240786.6458502,1055205.5275,6125690.2257,1424218.7413,0.503569,0.367147,0.566281,-0.539395,-0.0183,-0.0,-0.0016,-0.00036,0.0046,0.00108,0.065,-0.1191,9.7777
1771240786.69498,1055205.5275,6125690.2257,1424218.7413,0.503569,0.367147,0.566281,-0.539395,-0.0183,-0.0,-0.0016,0.00124,0.00061,0.00056,0.053,-0.0606,9.7964
1771240786.7444236,1055205.5275,6125690.2257,1424218.7413,0.503569,0.367147,0.566281,-0.539395,-0.0183,-0.0,-0.0016,-0.00084,0.00113,0.001,0.1132,-0.0952,9.8512
1771240786.7926123,1055205.5287,6125690.226,1424218.7442,0.503602,0.367095,0.566205,-0.53948,-0.0064,-0.0003,-0.0004,-0.00051,0.00216,0.00105,0.0105,-0.0943,9.8784
1771240786.843814,1055205.5287,6125690.226,1424218.7442,0.503602,0.367095,0.566205,-0.53948,-0.0064,-0.0003,-0.0004,0.00267,-0.00613,0.00064,-0.0253,-0.1499,9.7841
1771240786.8927813,1055205.5287,6125690.226,1424218.7442,0.503602,0.367095,0.566205,-0.53948,-0.0064,-0.0003,-0.0004,1e-05,-0.00174,0.00014,0.0856,-0.157,9.8364
1771240786.9511771,1055205.5287,6125690.226,1424218.7442,0.503602,0.367095,0.566205,-0.53948,-0.0064,-0.0003,-0.0004,-0.00139,0.00105,0.00126,0.0345,-0.1384,9.8227
1771240786.9997873,1055205.5287,6125690.226,1424218.7442,0.503602,0.367095,0.566205,-0.53948,-0.0064,-0.0003,-0.0004,-0.00104,-0.00149,0.00093,0.0423,-0.1771,9.8279
1771240787.0448809,1055205.5293,6125690.2255,1424218.7453,0.503641,0.367063,0.566107,-0.539567,0.0039,0.0011,-0.0004,-0.00184,0.00301,0.0003,0.0736,-0.1743,9.725
1771240787.0927224,1055205.5293,6125690.2255,1424218.7453,0.503641,0.367063,0.566107,-0.539567,0.0039,0.0011,-0.0004,-0.0019,0.00225,0.00018,0.0852,-0.1316,9.8022
1771240787.1507003,1055205.5293,6125690.2255,1424218.7453,0.503641,0.367063,0.566107,-0.539567,0.0039,0.0011,-0.0004,-0.00143,-0.00305,0.00018,0.0716,-0.0272,9.7689
1771240787.1997573,1055205.5293,6125690.2255,1424218.7453,0.503641,0.367063,0.566107,-0.539567,0.0039,0.0011,-0.0004,0.00118,-0.0001,0.0006,0.1173,-0.125,9.774
1771240787.2579215,1055205.5293,6125690.2255,1424218.7453,0.503641,0.367063,0.566107,-0.539567,0.0039,0.0011,-0.0004,0.00033,0.00029,0.00083,0.0062,-0.1229,9.7019
1771240787.2918847,1055205.5293,6125690.2255,1424218.7453,0.503641,0.367063,0.566107,-0.539567,0.0039,0.0011,-0.0004,0.00118,-0.00142,-0.00142,-0.047,-0.0588,9.8458
1771240787.3499367,1055205.5289,6125690.2254,1424218.7461,0.503711,0.367062,0.56601,-0.539605,0.0099,-0.0025,-0.0008,0.00223,-0.0072,-0.00093,-0.0894,-0.0483,9.8202
1771240787.3973715,1055205.5289,6125690.2254,1424218.7461,0.503711,0.367062,0.56601,-0.539605,0.0099,-0.0025,-0.0008,-0.00318,0.00207,-0.00048,0.0065,-0.0729,9.8499
1771240787.4718242,1055205.5289,6125690.2254,1424218.7461,0.503711,0.367062,0.56601,-0.539605,0.0099,-0.0025,-0.0008,0.00015,0.00241,-0.00062,-0.0386,-0.0996,9.8475
1771240787.505136,1055205.5289,6125690.2254,1424218.7461,0.503711,0.367062,0.56601,-0.539605,0.0099,-0.0025,-0.0008,0.00042,-0.00106,-0.0001,-0.0297,-0.1569,9.8185
1771240787.554349,1055205.5289,6125690.2254,1424218.7461,0.503711,0.367062,0.56601,-0.539605,0.0099,-0.0025,-0.0008,0.00035,0.00415,0.00046,0.0339,-0.0659,9.7899
1771240787.5966427,1055205.5287,6125690.2258,1424218.7444,0.503718,0.367084,0.565992,-0.539603,0.0038,-0.0004,0.0,0.00125,-0.00182,0.00011,0.0223,-0.0765,9.8201
1771240787.6468954,1055205.5287,6125690.2258,1424218.7444,0.503718,0.367084,0.565992,-0.539603,0.0038,-0.0004,0.0,0.00112,-0.00032,-0.00046,0.0066,-0.07,9.8091
1771240787.6923103,1055205.5287,6125690.2258,1424218.7444,0.503718,0.367084,0.565992,-0.539603,0.0038,-0.0004,0.0,0.00108,-0.00277,-0.00018,0.0029,-0.0533,9.8589
1771240787.7580578,1055205.5287,6125690.2258,1424218.7444,0.503718,0.367084,0.565992,-0.539603,0.0038,-0.0004,0.0,0.00043,-0.00592,-0.00023,0.0149,-0.1422,9.7818
1771240787.7965758,1055205.5287,6125690.2258,1424218.7444,0.503718,0.367084,0.565992,-0.539603,0.0038,-0.0004,0.0,-0.00018,0.00403,0.00016,-0.0006,-0.1112,9.7896
1771240787.8634179,1055205.5282,6125690.226,1424218.743,0.503701,0.367011,0.566041,-0.539616,-0.0011,-0.001,-0.0003,-0.00112,0.0001,0.00021,0.0065,-0.0584,9.8141
1771240787.913985,1055205.5282,6125690.226,1424218.743,0.503701,0.367011,0.566041,-0.539616,-0.0011,-0.001,-0.0003,-0.00127,0.00341,0.00053,0.0076,-0.0951,9.8183
1771240787.9431324,1055205.5282,6125690.226,1424218.743,0.503701,0.367011,0.566041,-0.539616,-0.0011,-0.001,-0.0003,-0.00107,0.00127,0.00012,-0.0169,-0.0677,9.8089
1771240787.997358,1055205.5282,6125690.226,1424218.743,0.503701,0.367011,0.566041,-0.539616,-0.0011,-0.001,-0.0003,0.00058,-0.00146,-0.0007,0.0176,-0.141,9.793
1771240788.0485508,1055205.5282,6125690.226,1424218.743,0.503701,0.367011,0.566041,-0.539616,-0.0011,-0.001,-0.0003,0.00159,-0.00484,0.00013,-0.0083,-0.0739,9.813
1771240788.0954478,1055205.5282,6125690.226,1424218.743,0.503701,0.367011,0.566041,-0.539616,-0.0011,-0.001,-0.0003,-0.00084,0.00388,0.00081,0.0285,-0.1378,9.8018
1771240788.1478987,1055205.5282,6125690.226,1424218.743,0.503701,0.367011,0.566041,-0.539616,-0.0011,-0.001,-0.0003,0.00115,-0.00065,-0.00042,-0.0262,-0.0525,9.7997
1771240788.2510915,1055205.5277,6125690.2261,1424218.7425,0.503716,0.36704,0.566001,-0.539625,-0.0006,-0.001,-0.0001,-0.00137,-0.0004,-0.00029,-0.0461,-0.0423,9.8441
1771240788.3030722,1055205.5277,6125690.2261,1424218.7425,0.503716,0.36704,0.566001,-0.539625,-0.0006,-0.001,-0.0001,0.00022,2e-05,0.00068,0.0631,-0.1504,9.7915
1771240788.3423607,1055205.5277,6125690.2261,1424218.7425,0.503716,0.36704,0.566001,-0.539625,-0.0006,-0.001,-0.0001,0.00121,0.00034,0.00019,-0.048,-0.0397,9.8281
1771240788.4041426,1055205.5271,6125690.2267,1424218.7409,0.503742,0.36706,0.565988,-0.5396,-0.0013,-0.0023,-0.0013,-0.00101,0.00031,0.00039,0.0156,-0.099,9.7973
1771240788.4483573,1055205.5271,6125690.2267,1424218.7409,0.503742,0.36706,0.565988,-0.5396,-0.0013,-0.0023,-0.0013,-0.00318,0.00794,0.00062,0.0226,-0.1059,9.8134
1771240788.503298,1055205.5271,6125690.2267,1424218.7409,0.503742,0.36706,0.565988,-0.5396,-0.0013,-0.0023,-0.0013,-0.00057,-0.00345,-0.00073,-0.0279,-0.0586,9.8118
1771240788.5522313,1055205.5271,6125690.2267,1424218.7409,0.503742,0.36706,0.565988,-0.5396,-0.0013,-0.0023,-0.0013,-0.0015,0.00563,0.00028,0.0327,-0.1159,9.7907
1771240788.598398,1055205.5271,6125690.2267,1424218.7409,0.503742,0.36706,0.565988,-0.5396,-0.0013,-0.0023,-0.0013,-0.00034,-0.00109,-6e-05,-0.0089,-0.0528,9.8182
1771240788.6459713,1055205.5268,6125690.2269,1424218.7398,0.503727,0.36696,0.566069,-0.539598,-0.0002,-0.0017,0.0,6e-05,0.00146,0.00026,-0.008,-0.1315,9.8023
1771240788.6942239,1055205.5268,6125690.2269,1424218.7398,0.503727,0.36696,0.566069,-0.539598,-0.0002,-0.0017,0.0,0.00089,-0.00062,0.0,-0.03,-0.0822,9.823
1771240788.742929,1055205.5268,6125690.2269,1424218.7398,0.503727,0.36696,0.566069,-0.539598,-0.0002,-0.0017,0.0,-0.0012,0.00178,0.00027,0.0609,-0.0607,9.8878
1771240788.7950015,1055205.5268,6125690.2269,1424218.7398,0.503727,0.36696,0.566069,-0.539598,-0.0002,-0.0017,0.0,-0.00049,0.00038,-0.00023,0.0949,-0.0631,9.8713
1771240788.8455944,1055205.5268,6125690.2269,1424218.7398,0.503727,0.36696,0.566069,-0.539598,-0.0002,-0.0017,0.0,0.00077,-0.00111,-0.00045,-0.0696,-0.1183,9.7652
1771240788.8923144,1055205.5268,6125690.2269,1424218.7398,0.503727,0.36696,0.566069,-0.539598,-0.0002,-0.0017,0.0,-0.00044,-0.00216,-0.00048,-0.1388,-0.0844,9.7292
1771240788.9425497,1055205.5263,6125690.2269,1424218.7384,0.503734,0.366925,0.566106,-0.539575,-0.0024,-0.0031,-0.0003,0.00025,-0.00123,0.00113,0.0161,-0.0855,9.8284
1771240788.999323,1055205.5263,6125690.2269,1424218.7384,0.503734,0.366925,0.566106,-0.539575,-0.0024,-0.0031,-0.0003,0.00268,-0.00097,2e-05,0.0805,-0.0646,9.8498
1771240789.042826,1055205.5263,6125690.2269,1424218.7384,0.503734,0.366925,0.566106,-0.539575,-0.0024,-0.0031,-0.0003,0.00095,-0.00533,-0.00099,0.0062,-0.0477,9.816
1771240789.101506,1055205.5263,6125690.2269,1424218.7384,0.503734,0.366925,0.566106,-0.539575,-0.0024,-0.0031,-0.0003,0.00104,0.00071,-0.00025,-0.0166,-0.0506,9.7538
1771240789.1419322,1055205.5263,6125690.2269,1424218.7384,0.503734,0.366925,0.566106,-0.539575,-0.0024,-0.0031,-0.0003,-0.00283,-0.00073,-0.00018,-0.0437,-0.0969,9.8105
1771240789.195021,1055205.5267,6125690.2268,1424218.7376,0.503777,0.366925,0.566103,-0.539539,0.0009,-0.0003,0.001,0.00052,0.00032,0.00035,0.0357,-0.1509,9.8175
1771240789.2419057,1055205.5267,6125690.2268,1424218.7376,0.503777,0.366925,0.566103,-0.539539,0.0009,-0.0003,0.001,-0.00126,0.0016,0.00035,0.0086,-0.0713,9.832
1771240789.293703,1055205.5267,6125690.2268,1424218.7376,0.503777,0.366925,0.566103,-0.539539,0.0009,-0.0003,0.001,0.00073,0.00194,0.0006,0.0142,-0.1252,9.8056
1771240789.342141,1055205.5267,6125690.2268,1424218.7376,0.503777,0.366925,0.566103,-0.539539,0.0009,-0.0003,0.001,0.00106,0.00061,-0.00043,-0.0194,-0.0505,9.8023
1771240789.3993113,1055205.5267,6125690.2268,1424218.7376,0.503777,0.366925,0.566103,-0.539539,0.0009,-0.0003,0.001,-0.00124,-0.00034,0.00025,-0.0075,-0.096,9.8067
1771240789.4423988,1055205.5267,6125690.2268,1424218.7376,0.503777,0.366925,0.566103,-0.539539,0.0009,-0.0003,0.001,0.00083,0.00167,0.00024,0.0194,-0.1128,9.8134
1771240789.4995198,1055205.5261,6125690.2265,1424218.7367,0.503792,0.366928,0.566108,-0.539517,-0.0011,-0.0017,-0.0002,0.00063,-0.00258,-0.00036,0.0086,-0.0911,9.8107
1771240789.5419405,1055205.5261,6125690.2265,1424218.7367,0.503792,0.366928,0.566108,-0.539517,-0.0011,-0.0017,-0.0002,0.00091,0.00293,-0.00025,0.0143,-0.1162,9.8117
1771240789.6050432,1055205.5261,6125690.2265,1424218.7367,0.503792,0.366928,0.566108,-0.539517,-0.0011,-0.0017,-0.0002,0.00102,0.001,3e-05,0.0166,-0.0501,9.7902
1771240789.6433516,1055205.5261,6125690.2265,1424218.7367,0.503792,0.366928,0.566108,-0.539517,-0.0011,-0.0017,-0.0002,-0.00071,-0.00164,0.00013,-0.009,-0.1203,9.7928
1771240789.706652,1055205.5261,6125690.2265,1424218.7367,0.503792,0.366928,0.566108,-0.539517,-0.0011,-0.0017,-0.0002,0.0016,0.00044,0.00016,-0.0213,-0.081,9.8037
1771240789.7422144,1055205.5261,6125690.2265,1424218.7367,0.503792,0.366928,0.566108,-0.539517,-0.0011,-0.0017,-0.0002,0.0001,-0.00068,0.00059,-0.011,-0.1073,9.8179
1771240789.792453,1055205.527,6125690.2265,1424218.7367,0.503744,0.366942,0.566123,-0.539537,-0.0003,-0.0013,-0.0005,-0.00062,0.00481,0.00031,-0.0193,-0.1063,9.7972
1771240789.8415859,1055205.527,6125690.2265,1424218.7367,0.503744,0.366942,0.566123,-0.539537,-0.0003,-0.0013,-0.0005,0.00102,-0.00186,-0.00049,0.0097,-0.0704,9.8021
1771240789.8942451,1055205.527,6125690.2265,1424218.7367,0.503744,0.366942,0.566123,-0.539537,-0.0003,-0.0013,-0.0005,4e-05,-0.00133,-0.00017,0.0225,-0.0719,9.8031
1771240789.942227,1055205.527,6125690.2265,1424218.7367,0.503744,0.366942,0.566123,-0.539537,-0.0003,-0.0013,-0.0005,-0.00024,1e-05,0.00026,-0.0063,-0.0858,9.8144
1771240789.9928231,1055205.527,6125690.2265,1424218.7367,0.503744,0.366942,0.566123,-0.539537,-0.0003,-0.0013,-0.0005,0.00038,0.0008,0.00027,-0.0053,-0.0961,9.8085
1771240790.0421925,1055205.5273,6125690.2266,1424218.7369,0.503694,0.366957,0.566126,-0.539571,-0.0013,-0.0019,-0.0004,-0.00306,0.00643,0.00017,-0.009,-0.0978,9.8054
1771240790.0919812,1055205.5273,6125690.2266,1424218.7369,0.503694,0.366957,0.566126,-0.539571,-0.0013,-0.0019,-0.0004,0.00077,-0.0017,0.00034,0.0008,-0.1011,9.8084
1771240790.144966,1055205.5273,6125690.2266,1424218.7369,0.503694,0.366957,0.566126,-0.539571,-0.0013,-0.0019,-0.0004,-0.0002,0.00175,0.00018,0.0043,-0.0931,9.8226
1771240790.1923742,1055205.5273,6125690.2266,1424218.7369,0.503694,0.366957,0.566126,-0.539571,-0.0013,-0.0019,-0.0004,0.00086,-0.0011,6e-05,0.0087,-0.0994,9.7857
1771240790.2420263,1055205.5273,6125690.2266,1424218.7369,0.503694,0.366957,0.566126,-0.539571,-0.0013,-0.0019,-0.0004,0.0007,-0.00202,-7e-05,-0.0152,-0.07,9.8198
1771240790.294009,1055205.5273,6125690.2266,1424218.7369,0.503694,0.366957,0.566126,-0.539571,-0.0013,-0.0019,-0.0004,0.00088,-0.00136,0.00024,0.0313,-0.1218,9.814
1771240790.3452709,1055205.5275,6125690.2264,1424218.7373,0.503698,0.367001,0.566113,-0.53955,-0.0007,-0.001,-0.0003,0.00152,-0.00108,0.00046,-0.0251,-0.0794,9.8265
1771240790.3919466,1055205.5275,6125690.2264,1424218.7373,0.503698,0.367001,0.566113,-0.53955,-0.0007,-0.001,-0.0003,-0.00147,-0.00069,0.00037,-0.0396,-0.1201,9.7936
1771240790.44685,1055205.5275,6125690.2264,1424218.7373,0.503698,0.367001,0.566113,-0.53955,-0.0007,-0.001,-0.0003,-0.0006,-0.0007,0.0003,-0.0071,-0.0773,9.7892
1771240790.4944503,1055205.5275,6125690.2264,1424218.7373,0.503698,0.367001,0.566113,-0.53955,-0.0007,-0.001,-0.0003,-0.00141,0.00338,-8e-05,0.0719,-0.1281,9.8259
1771240790.542822,1055205.5275,6125690.2264,1424218.7373,0.503698,0.367001,0.566113,-0.53955,-0.0007,-0.001,-0.0003,-0.00014,0.00086,-6e-05,0.2101,-0.0041,9.737
1771240790.6009026,1055205.528,6125690.2268,1424218.7375,0.503706,0.366982,0.566118,-0.53955,-0.0001,-0.0006,0.0004,-0.00125,-0.0035,-0.00063,0.1672,-0.0773,9.742
1771240790.65304,1055205.528,6125690.2268,1424218.7375,0.503706,0.366982,0.566118,-0.53955,-0.0001,-0.0006,0.0004,6e-05,0.0008,-0.0008,0.354,-0.1442,9.8098
1771240790.6980526,1055205.528,6125690.2268,1424218.7375,0.503706,0.366982,0.566118,-0.53955,-0.0001,-0.0006,0.0004,0.00034,-0.00202,-0.00192,0.283,-0.0626,9.781
1771240790.7468727,1055205.528,6125690.2268,1424218.7375,0.503706,0.366982,0.566118,-0.53955,-0.0001,-0.0006,0.0004,-0.00032,-0.00147,-0.00246,0.2814,-0.1059,9.844
1771240790.7998464,1055205.528,6125690.2268,1424218.7375,0.503706,0.366982,0.566118,-0.53955,-0.0001,-0.0006,0.0004,0.00168,0.00012,-0.00298,0.3231,-0.1035,9.8001
1771240790.8426478,1055205.5281,6125690.2234,1424218.7503,0.503744,0.36721,0.566178,-0.539297,0.0876,-0.0077,0.0005,-0.00038,0.00107,-0.00364,0.2961,-0.0829,9.8386
1771240790.8924043,1055205.5281,6125690.2224,1424218.755,0.503659,0.367186,0.566273,-0.539293,0.1015,-0.008,0.0015,-0.00078,0.00746,-0.00266,0.2667,-0.0725,9.7956
1771240790.9437046,1055205.5282,6125690.2213,1424218.7602,0.503628,0.367228,0.56633,-0.539233,0.1101,-0.0087,0.0017,-0.00026,-0.00233,-0.00424,0.1763,-0.0945,9.8322
1771240790.9928765,1055205.5283,6125690.22,1424218.7658,0.503567,0.367249,0.566415,-0.539187,0.1202,-0.0086,0.0011,-0.00158,0.00549,-0.00431,0.1461,-0.0909,9.7181
1771240791.0425606,1055205.5283,6125690.2186,1424218.7718,0.503531,0.367309,0.56648,-0.539111,0.1267,-0.0103,0.0011,-0.00068,-0.00051,-0.00493,0.1718,-0.1117,9.8792
1771240791.0917594,1055205.5284,6125690.2172,1424218.7782,0.503481,0.367352,0.566567,-0.539037,0.1326,-0.0104,0.0008,-0.00139,-0.0016,-0.00541,0.044,-0.0904,9.7314
1771240791.1422849,1055205.5288,6125690.2185,1424218.7692,0.503498,0.367533,0.566576,-0.538889,0.1133,-0.0089,0.0012,0.00178,0.00034,-0.00537,0.2145,-0.1265,9.85
1771240791.200336,1055205.5288,6125690.2172,1424218.7749,0.503412,0.367587,0.566658,-0.538845,0.1187,-0.0089,0.0006,0.00156,-0.00118,-0.00527,0.0881,-0.0981,9.8101
1771240791.2516348,1055205.5289,6125690.2159,1424218.7809,0.503381,0.367695,0.566703,-0.538753,0.1243,-0.0085,0.0021,0.00086,0.00085,-0.00524,0.162,-0.0675,9.8512
1771240791.2967591,1055205.5291,6125690.2145,1424218.7871,0.503341,0.367781,0.566776,-0.538655,0.1298,-0.009,0.0013,0.00028,-0.00513,-0.00662,0.1207,-0.0958,9.7865
1771240791.35415,1055205.5292,6125690.213,1424218.7936,0.503261,0.367858,0.566869,-0.53858,0.1355,-0.0098,0.0013,0.00079,0.00439,-0.00659,0.097,-0.1001,9.8219
1771240791.3944561,1055205.5287,6125690.2152,1424218.7799,0.503243,0.367992,0.566913,-0.538459,0.1042,-0.0067,-0.0015,-0.00087,-0.00288,-0.00542,0.0928,-0.0561,9.6541
1771240791.459851,1055205.5288,6125690.2139,1424218.785,0.503195,0.368069,0.566999,-0.53836,0.1099,-0.008,-0.0008,0.0001,-0.00116,-0.00714,0.1674,-0.1017,9.913
1771240791.4944408,1055205.5289,6125690.2126,1424218.7906,0.503105,0.36814,0.567101,-0.538289,0.1174,-0.009,-0.0017,0.00031,0.0031,-0.0066,0.1385,-0.0963,9.6731
1771240791.5465667,1055205.5289,6125690.2111,1424218.7965,0.503053,0.368258,0.567187,-0.538166,0.1237,-0.0094,-0.0023,-0.00076,0.00137,-0.00802,0.1679,-0.0775,9.8633
1771240791.5924964,1055205.5289,6125690.2095,1424218.8026,0.502998,0.368377,0.567274,-0.538044,0.1303,-0.0115,-0.0016,0.00124,-0.00152,-0.00917,0.1995,-0.1301,9.8722
1771240791.6505342,1055205.5275,6125690.212,1424218.7876,0.502922,0.368497,0.567366,-0.537936,0.0993,-0.0105,-0.0039,0.00098,-0.00126,-0.008,0.1459,-0.075,9.8774
1771240791.6926687,1055205.5274,6125690.2107,1424218.7927,0.50287,0.36863,0.567449,-0.537807,0.1065,-0.0103,-0.0031,-0.00076,0.00331,-0.00742,0.1613,-0.14,9.8322
1771240791.7511759,1055205.5273,6125690.2093,1424218.798,0.502801,0.368753,0.567553,-0.537677,0.1111,-0.013,-0.0035,0.00101,-0.00115,-0.00859,0.0785,-0.085,9.7748
1771240791.792414,1055205.527,6125690.2079,1424218.8036,0.502705,0.368857,0.56768,-0.537561,0.1181,-0.0132,-0.0042,-0.0001,-0.00107,-0.00918,0.1207,-0.0446,9.7531
1771240791.854153,1055205.5268,6125690.2063,1424218.8095,0.502617,0.368972,0.567804,-0.537433,0.1246,-0.0139,-0.0053,-0.00013,0.00089,-0.0096,0.1335,-0.0881,9.7592
1771240791.8970006,1055205.5265,6125690.2047,1424218.8157,0.502535,0.369111,0.567914,-0.537298,0.1305,-0.0156,-0.0046,0.0004,-0.00421,-0.00999,0.134,-0.0828,9.8236
1771240791.9419463,1055205.5252,6125690.2027,1424218.8126,0.502401,0.369293,0.568046,-0.537158,0.1317,-0.0168,-0.0079,-0.00109,-0.0049,-0.01178,0.2047,-0.1007,9.8209
1771240791.9971051,1055205.5248,6125690.2009,1424218.8192,0.502245,0.369386,0.568219,-0.537057,0.1407,-0.0158,-0.0071,0.00179,-0.00025,-0.01087,0.158,-0.0423,9.8062
1771240792.0416741,1055205.5246,6125690.199,1424218.8261,0.502152,0.369507,0.568365,-0.536907,0.1466,-0.0147,-0.0062,-0.00021,-0.00301,-0.01031,0.1432,-0.1002,9.7989
1771240792.0922403,1055205.5244,6125690.197,1424218.8334,0.502028,0.369627,0.568528,-0.536768,0.1552,-0.016,-0.0068,-0.00088,0.00817,-0.01117,0.2166,-0.1147,9.8211
1771240792.142029,1055205.5241,6125690.1949,1424218.841,0.501972,0.369841,0.568614,-0.536582,0.1575,-0.0199,-0.0066,0.00125,-0.01226,-0.01158,0.0644,-0.186,9.8036
1771240792.194162,1055205.5206,6125690.1949,1424218.8924,0.501859,0.369938,0.56865,-0.536582,0.1892,-0.0277,-0.0018,0.00448,-0.0068,-0.01122,0.2154,-0.0811,9.7759
1771240792.2426105,1055205.52,6125690.1927,1424218.9019,0.501732,0.370081,0.568806,-0.536437,0.1997,-0.0258,-0.0021,0.00034,0.00973,-0.01136,0.223,-0.0746,9.8249
1771240792.2920287,1055205.5195,6125690.1904,1424218.9118,0.501542,0.3702,0.569002,-0.536324,0.2046,-0.0231,-0.0007,0.00167,0.00252,-0.01323,0.1523,-0.0171,9.8063
1771240792.341811,1055205.5192,6125690.188,1424218.922,0.501406,0.370348,0.569187,-0.536153,0.2106,-0.0222,-0.001,0.00045,-0.00265,-0.01338,0.1057,-0.1253,9.7444
1771240792.3922224,1055205.5188,6125690.1856,1424218.9324,0.501329,0.370627,0.569302,-0.535911,0.2165,-0.026,-0.0006,0.00263,-0.00892,-0.01584,0.2262,-0.1988,9.8791
1771240792.4420137,1055205.5219,6125690.1752,1424219.0189,0.501122,0.370768,0.569509,-0.535786,0.2916,-0.0312,0.0047,0.00206,-0.00665,-0.01541,0.1539,-0.1399,9.737
1771240792.492069,1055205.5215,6125690.1721,1424219.0335,0.500936,0.37097,0.569733,-0.535583,0.304,-0.0314,0.0041,-0.00147,0.01332,-0.01508,0.2993,-0.169,9.7683
1771240792.544344,1055205.5212,6125690.1688,1424219.0486,0.50073,0.371048,0.570002,-0.535435,0.309,-0.0282,0.0049,-0.00076,-0.00621,-0.01116,-0.0227,-0.0725,9.743
1771240792.6261568,1055205.521,6125690.1656,1424219.064,0.500624,0.371252,0.570154,-0.53523,0.3183,-0.0299,0.0049,-0.00022,0.0117,-0.01419,0.2324,-0.2296,9.8112
1771240792.6432495,1055205.5207,6125690.1622,1424219.0797,0.500463,0.37148,0.570369,-0.534994,0.3235,-0.0323,0.0048,0.00046,-0.00343,-0.01896,0.1868,-0.2255,9.8268
1771240792.6923862,1055205.5203,6125690.1588,1424219.0958,0.500316,0.371745,0.570597,-0.534704,0.3306,-0.0326,0.0046,-0.00068,-0.00209,-0.01898,0.1059,-0.1246,9.7551
1771240792.7419925,1055205.516,6125690.1517,1424219.1491,0.500203,0.371955,0.570755,-0.534495,0.3672,-0.0399,0.0087,0.00259,-0.00123,-0.01733,0.2576,-0.1674,9.7961
1771240792.7936225,1055205.5154,6125690.148,1424219.1674,0.499905,0.372001,0.571099,-0.534374,0.3767,-0.0404,0.0086,-0.00123,0.00903,-0.01556,0.116,-0.0625,9.8238
1771240792.8416898,1055205.5147,6125690.1442,1424219.1861,0.499748,0.372221,0.571318,-0.534134,0.3815,-0.0426,0.0086,0.00098,-0.00321,-0.01735,0.1167,-0.1818,9.8031
1771240792.9203389,1055205.5139,6125690.1403,1424219.2052,0.499548,0.372483,0.571553,-0.533888,0.3907,-0.0455,0.008,0.00202,0.00199,-0.01935,0.1791,-0.0773,9.8204
1771240792.9467776,1055205.5131,6125690.1364,1424219.2246,0.499345,0.37275,0.571805,-0.53362,0.4,-0.0428,0.0089,-2e-05,-0.00046,-0.01918,0.1785,-0.0145,9.849
1771240792.9948997,1055205.5091,6125690.1257,1424219.2557,0.499184,0.372966,0.572028,-0.533381,0.417,-0.0453,0.0036,0.00157,0.00062,-0.01856,0.1998,-0.1268,9.7837
1771240793.0421436,1055205.5083,6125690.1212,1424219.2765,0.49893,0.373112,0.572361,-0.53316,0.4266,-0.0448,0.0034,-0.00261,0.00651,-0.01912,0.1321,-0.0637,9.8054
1771240793.0936444,1055205.5075,6125690.1166,1424219.2976,0.498763,0.373386,0.572608,-0.532859,0.4341,-0.0461,0.0039,-0.00035,0.00384,-0.01998,0.211,-0.1048,9.8237
1771240793.1423306,1055205.5066,6125690.112,1424219.319,0.498592,0.373698,0.57282,-0.532571,0.44,-0.0496,0.0048,0.00246,-0.00697,-0.01978,0.1634,-0.1383,9.8035
1771240793.1922586,1055205.5056,6125690.1073,1424219.3409,0.498351,0.373963,0.573093,-0.532318,0.4513,-0.0494,0.004,0.00165,-0.00071,-0.02021,0.1437,-0.0872,9.8334
1771240793.2424443,1055205.5105,6125690.1016,1424219.3608,0.498212,0.374236,0.573322,-0.532009,0.458,-0.0423,0.0031,0.00043,0.00538,-0.02218,0.3043,-0.1104,9.7423
1771240793.2957942,1055205.5097,6125690.0966,1424219.3834,0.497993,0.374568,0.573576,-0.531706,0.4641,-0.0464,0.0023,0.00347,-0.00521,-0.02339,0.1805,-0.1827,9.8031
1771240793.3418913,1055205.5089,6125690.0915,1424219.4064,0.497735,0.374846,0.573865,-0.531441,0.4758,-0.0463,0.0027,0.00391,0.00665,-0.02059,0.2885,-0.0907,9.8135
1771240793.3986137,1055205.508,6125690.0863,1424219.4299,0.497494,0.375137,0.57413,-0.531176,0.4841,-0.0454,0.0034,0.00067,0.00257,-0.02098,0.2384,-0.0451,9.8397
1771240793.4423447,1055205.5073,6125690.0811,1424219.4539,0.497209,0.375336,0.574497,-0.530904,0.4932,-0.0424,0.0051,-0.00229,0.00115,-0.02245,0.0567,0.0155,9.7946
1771240793.4923697,1055205.5065,6125690.0759,1424219.4783,0.497077,0.375746,0.574721,-0.530495,0.5007,-0.0491,0.0051,0.00306,-0.00207,-0.02477,0.225,-0.1898,9.7916
1771240793.54733,1055205.51,6125690.0723,1424219.4954,0.496785,0.376073,0.575019,-0.530214,0.5049,-0.0455,0.0045,0.00318,0.00165,-0.02626,0.1217,-0.0397,9.7947
1771240793.5969133,1055205.5092,6125690.0669,1424219.5203,0.496486,0.376352,0.575378,-0.529907,0.5109,-0.0431,0.0063,0.00106,0.00918,-0.0237,0.1639,0.0256,9.8484
1771240793.6419852,1055205.5085,6125690.0615,1424219.5454,0.496268,0.376649,0.575681,-0.52957,0.5145,-0.0441,0.0069,0.00018,-0.00353,-0.02348,0.0838,-0.1114,9.7935
1771240793.6967468,1055205.5077,6125690.056,1424219.5709,0.495993,0.376954,0.576016,-0.529246,0.5227,-0.0481,0.0055,0.00305,0.00669,-0.02561,0.1308,-0.2262,9.7316
1771240793.7418954,1055205.5066,6125690.0505,1424219.5967,0.495702,0.37735,0.576333,-0.528892,0.5289,-0.0485,0.0069,0.00332,0.00031,-0.02769,0.1927,-0.0095,9.8621
1771240793.7991102,1055205.4997,6125690.0463,1424219.6272,0.495481,0.377729,0.576634,-0.5285,0.5327,-0.0491,0.0095,0.0011,-0.00502,-0.02676,0.0533,0.035,9.8185
1771240793.8460052,1055205.4986,6125690.0409,1424219.6535,0.495167,0.37802,0.577011,-0.528175,0.5364,-0.0501,0.0103,0.00127,0.00178,-0.02464,-0.0952,-0.0422,9.8403
1771240793.905734,1055205.4974,6125690.0355,1424219.6799,0.494957,0.378371,0.577311,-0.527793,0.5378,-0.0517,0.0117,0.00093,-0.0043,-0.02655,0.0669,-0.151,9.8156
1771240793.943679,1055205.4962,6125690.0302,1424219.7065,0.494674,0.378682,0.577667,-0.527445,0.5438,-0.0512,0.0112,0.00031,0.00528,-0.02548,0.1763,-0.0368,9.7396
1771240793.993248,1055205.495,6125690.0246,1424219.7334,0.494367,0.378927,0.578098,-0.527085,0.5509,-0.0488,0.0105,-0.00426,0.01599,-0.02731,0.0309,0.0003,9.8253
1771240794.0421302,1055205.494,6125690.0192,1424219.7603,0.494196,0.379252,0.578469,-0.526605,0.5447,-0.0474,0.014,-0.00566,-0.01159,-0.02852,-0.0454,-0.1283,9.8394
1771240794.0937893,1055205.4929,6125690.0137,1424219.7874,0.493971,0.379583,0.578827,-0.526183,0.5568,-0.0482,0.0099,-0.00012,0.00117,-0.02497,0.1565,-0.1204,9.7437
1771240794.1425815,1055205.4877,6125690.0067,1424219.8133,0.493806,0.379868,0.579122,-0.525807,0.5634,-0.0504,0.0066,-0.00045,0.00645,-0.02518,0.296,-0.1891,9.7939
1771240794.193077,1055205.4861,6125690.0008,1424219.8411,0.493511,0.380171,0.579485,-0.525466,0.5686,-0.0593,0.0057,0.00237,0.00074,-0.02856,0.0641,-0.1018,9.7881
1771240794.242192,1055205.4844,6125689.995,1424219.869,0.493186,0.380499,0.579911,-0.525063,0.5692,-0.0566,0.0096,-0.0021,-0.00181,-0.03021,-0.0599,0.0224,9.9154
1771240794.298032,1055205.4828,6125689.9893,1424219.897,0.49299,0.380919,0.580241,-0.524578,0.5703,-0.0546,0.0121,0.00049,-0.00238,-0.0287,0.1078,-0.1257,9.8396
1771240794.3424804,1055205.4732,6125689.986,1424219.9201,0.492662,0.381198,0.580576,-0.524313,0.5724,-0.0624,0.0108,0.00277,-0.00898,-0.02651,0.0151,-0.0774,9.7844
1771240794.39747,1055205.4713,6125689.9803,1424219.9485,0.492358,0.381423,0.581019,-0.523944,0.5774,-0.058,0.0109,-0.00667,0.00755,-0.0251,-0.1344,0.0421,9.8968
1771240794.4424207,1055205.4693,6125689.9746,1424219.9768,0.492182,0.381776,0.58135,-0.523484,0.5766,-0.0666,0.0117,-0.00091,-0.00478,-0.02755,0.0259,-0.3753,9.7835
1771240794.493681,1055205.4667,6125689.969,1424220.0054,0.491818,0.382203,0.581671,-0.523159,0.5834,-0.0756,0.0081,0.00689,-0.00016,-0.02884,0.1673,-0.074,9.7046
1771240794.5424788,1055205.4641,6125689.9631,1424220.0342,0.491479,0.382624,0.582023,-0.522778,0.5898,-0.0728,0.0079,0.00314,0.00538,-0.02787,0.1062,-0.228,9.8084
1771240794.592651,1055205.4539,6125689.9633,1424220.0546,0.491153,0.382962,0.582338,-0.522484,0.5859,-0.0761,0.0103,0.0046,-0.0082,-0.0288,0.0698,-0.1582,9.7491
1771240794.6427379,1055205.451,6125689.9576,1424220.0837,0.490776,0.383292,0.582772,-0.522114,0.5921,-0.0771,0.0118,0.00131,0.00889,-0.03157,0.0858,-0.17,9.8956
1771240794.692786,1055205.4481,6125689.9519,1424220.1128,0.490498,0.383746,0.58312,-0.521653,0.592,-0.0759,0.012,0.00253,-0.01298,-0.03036,0.1379,-0.1535,9.7177
1771240794.7443225,1055205.4452,6125689.9461,1424220.1423,0.490116,0.384102,0.583555,-0.521263,0.606,-0.075,0.0079,0.00156,0.01543,-0.0298,0.2253,-0.1222,9.7746
1771240794.791641,1055205.4424,6125689.9401,1424220.172,0.489765,0.38441,0.58401,-0.520857,0.6039,-0.0691,0.0116,-0.00134,0.00642,-0.02958,-0.0539,-0.0466,9.9757
1771240794.8461142,1055205.4396,6125689.9342,1424220.2017,0.489656,0.384865,0.584259,-0.520343,0.6063,-0.0716,0.0108,-0.0002,-0.00519,-0.02951,0.2957,-0.0674,9.7133
1771240794.8923273,1055205.4358,6125689.9329,1424220.2301,0.489328,0.38512,0.584707,-0.519959,0.6144,-0.0748,0.0121,0.00048,-0.00369,-0.0285,0.1113,-0.2712,9.8425
1771240794.9458964,1055205.4327,6125689.927,1424220.2605,0.488935,0.385461,0.585159,-0.519568,0.6208,-0.0764,0.016,0.00165,0.01917,-0.03142,0.135,-0.1178,9.9426
1771240794.9945292,1055205.4294,6125689.9214,1424220.291,0.488679,0.38597,0.585424,-0.519132,0.6197,-0.0787,0.0175,0.0054,-0.00997,-0.03161,0.2747,-0.0012,9.8052
1771240795.0418284,1055205.4261,6125689.9156,1424220.3219,0.488341,0.386367,0.585761,-0.518775,0.6317,-0.0787,0.0133,0.00332,-0.00475,-0.02738,0.1887,-0.0259,9.7548
1771240795.0926964,1055205.4227,6125689.9095,1424220.3531,0.487912,0.386711,0.58618,-0.518449,0.6362,-0.0805,0.0133,0.00431,0.00588,-0.02894,-0.0728,-0.1166,9.8383
1771240795.141899,1055205.4257,6125689.8952,1424220.3937,0.487507,0.387069,0.586615,-0.518071,0.6429,-0.0751,0.0091,0.00329,-0.00669,-0.03183,-0.1442,0.1069,9.8301
1771240795.1920614,1055205.4224,6125689.8888,1424220.4254,0.487267,0.387588,0.586941,-0.517539,0.6503,-0.0763,0.0081,0.0014,0.0026,-0.03394,0.2031,-0.1817,9.7875
1771240795.2451684,1055205.419,6125689.8824,1424220.4574,0.486848,0.387997,0.587387,-0.517121,0.6564,-0.0775,0.0094,0.00336,0.00784,-0.03188,0.1304,-0.084,9.845
1771240795.293765,1055205.4157,6125689.8759,1424220.4898,0.486532,0.388385,0.587773,-0.516688,0.6629,-0.0687,0.009,0.00116,0.00343,-0.03076,0.2387,-0.0461,9.7668
1771240795.3471572,1055205.4125,6125689.8692,1424220.5224,0.486195,0.388711,0.588211,-0.516262,0.6688,-0.0701,0.0069,0.00025,0.00085,-0.03288,0.176,-0.255,9.7746
1771240795.395002,1055205.4065,6125689.8654,1424220.546,0.485727,0.388964,0.588783,-0.51586,0.6678,-0.0726,0.0072,0.002,0.00936,-0.03588,0.1084,-0.1156,9.7687
1771240795.4490166,1055205.4031,6125689.8588,1424220.5788,0.485382,0.389337,0.589265,-0.515352,0.6701,-0.0705,0.0083,-0.001,-0.00693,-0.0341,0.0492,-0.0981,9.7314
1771240795.4917774,1055205.3998,6125689.852,1424220.6119,0.485041,0.389654,0.589749,-0.51488,0.6766,-0.0682,0.0087,-0.00148,-0.00349,-0.03111,0.0212,-0.273,9.8409
1771240795.5502868,1055205.3963,6125689.8452,1424220.6453,0.484639,0.389943,0.590241,-0.514475,0.6865,-0.0705,0.0095,0.0018,0.01223,-0.03083,0.1235,-0.2373,9.9394
1771240795.592782,1055205.3928,6125689.8384,1424220.679,0.484239,0.390269,0.590745,-0.514027,0.6891,-0.0702,0.0097,-0.00119,0.00957,-0.03455,0.0207,-0.1692,9.7253
1771240795.642713,1055205.3892,6125689.8315,1424220.7128,0.483937,0.390691,0.591177,-0.513493,0.6952,-0.0715,0.008,-0.00149,0.00683,-0.03644,0.1968,-0.1809,9.8167
1771240795.6935754,1055205.3905,6125689.8209,1424220.7471,0.483482,0.390927,0.591792,-0.513033,0.6984,-0.0659,0.008,-0.00236,0.0059,-0.03397,-0.0431,-0.2815,9.8923
1771240795.7444298,1055205.3871,6125689.8138,1424220.7814,0.483156,0.391286,0.592288,-0.512494,0.7064,-0.0631,0.0058,-0.00469,0.021,-0.03525,0.2529,-0.2879,9.7369
1771240795.7949536,1055205.3837,6125689.8066,1424220.816,0.482812,0.391635,0.592765,-0.512001,0.7037,-0.0642,0.0087,4e-05,-0.00893,-0.035,-0.0979,-0.1482,9.8938
1771240795.8485184,1055205.3803,6125689.7995,1424220.8506,0.482424,0.391887,0.593327,-0.511523,0.7072,-0.0637,0.0107,-0.00525,-0.00166,-0.03123,-0.1661,-0.3388,9.8426
1771240795.8929622,1055205.3766,6125689.7923,1424220.8854,0.482107,0.392356,0.593755,-0.510964,0.7193,-0.0712,0.0069,0.00188,0.01038,-0.03826,0.2882,-0.3684,9.8404
1771240795.9525611,1055205.3791,6125689.7719,1424220.9297,0.4817,0.392714,0.594267,-0.510478,0.7255,-0.0657,-0.0004,0.00109,-0.01672,-0.03357,-0.2914,-0.2722,9.8724
1771240795.9964743,1055205.3754,6125689.7641,1424220.9653,0.481294,0.393086,0.594761,-0.509998,0.7335,-0.059,-0.0,-9e-05,0.00408,-0.03054,0.0175,0.0063,9.8454
1771240796.053428,1055205.3718,6125689.7561,1424221.0012,0.480951,0.393385,0.595269,-0.509499,0.7412,-0.0559,-0.0003,-0.00445,0.00944,-0.03434,0.1338,-0.0466,9.751
1771240796.094788,1055205.3682,6125689.7482,1424221.0375,0.480448,0.393535,0.59591,-0.509108,0.7468,-0.0588,0.0018,-0.00314,0.02512,-0.03391,0.1134,-0.1296,9.7375
1771240796.1475482,1055205.3646,6125689.7403,1424221.0738,0.480113,0.393832,0.596378,-0.508646,0.7417,-0.0585,0.0027,-0.00226,-0.00306,-0.03187,0.0449,-0.1589,9.7559
1771240796.1933315,1055205.3608,6125689.7324,1424221.1101,0.479678,0.394085,0.59695,-0.50819,0.7439,-0.0541,0.0018,-0.00223,-0.00345,-0.03612,-0.0661,0.0591,9.8724
1771240796.242645,1055205.3566,6125689.7209,1424221.1441,0.479395,0.394552,0.597408,-0.507556,0.7465,-0.056,-0.0024,0.00242,-0.00922,-0.03647,0.1336,0.0679,9.8881
1771240796.2919219,1055205.3528,6125689.7126,1424221.1806,0.47903,0.394927,0.597909,-0.507018,0.7552,-0.0524,-0.0074,-0.00198,-0.00191,-0.03413,-0.098,0.2482,9.7619
1771240796.3427913,1055205.3489,6125689.704,1424221.2175,0.47868,0.395263,0.598415,-0.506491,0.7651,-0.0578,-0.0081,-0.00013,0.01833,-0.0333,0.0745,-0.1538,9.8573
1771240796.3925188,1055205.3448,6125689.6955,1424221.2547,0.47845,0.395717,0.598772,-0.505931,0.7685,-0.06,-0.0069,-0.00188,-0.00895,-0.0344,-0.0467,-0.1204,9.9145
1771240796.4474173,1055205.3404,6125689.687,1424221.2922,0.478187,0.396196,0.59913,-0.50538,0.776,-0.0699,-0.0071,0.00246,0.00388,-0.03431,0.2075,-0.3765,9.6401
1771240796.4990442,1055205.3387,6125689.6782,1424221.3283,0.477875,0.396701,0.59948,-0.504864,0.7764,-0.0693,-0.007,0.00155,-0.01738,-0.0334,-0.0066,-0.2829,9.8013
1771240796.5417814,1055205.3338,6125689.6698,1424221.3661,0.477524,0.397281,0.599766,-0.504399,0.7808,-0.0745,-0.0034,0.00895,0.00294,-0.03386,0.1967,-0.2848,9.8963
1771240796.5958948,1055205.3289,6125689.6612,1424221.4045,0.476912,0.397557,0.600289,-0.504138,0.791,-0.0589,-0.0058,0.00131,-0.00678,-0.03058,-0.1091,0.1259,9.7921
1771240796.6421115,1055205.3244,6125689.6524,1424221.4431,0.476699,0.39808,0.600653,-0.503494,0.802,-0.0619,-0.0099,2e-05,0.01621,-0.04142,0.5724,-0.2376,9.582
1771240796.692935,1055205.3195,6125689.6434,1424221.4822,0.476279,0.398556,0.601116,-0.502962,0.8063,-0.0651,-0.0114,0.00387,-0.02242,-0.04101,0.254,-0.3717,9.7321
1771240796.7439299,1055205.3055,6125689.6493,1424221.4882,0.475614,0.398983,0.601787,-0.50245,0.787,-0.0728,-0.0073,0.0056,-0.00966,-0.0386,-0.3209,-0.0732,9.6694
1771240796.7964873,1055205.3,6125689.6408,1424221.5264,0.475382,0.399644,0.602086,-0.501786,0.7937,-0.0747,-0.0058,0.00308,-0.00074,-0.03709,0.1966,-0.2776,9.8782
1771240796.8526735,1055205.2942,6125689.6323,1424221.5654,0.474798,0.400075,0.60251,-0.501487,0.8022,-0.0864,-0.004,0.01305,0.00376,-0.031,-0.212,-0.4797,9.9224
1771240796.8920236,1055205.2878,6125689.624,1424221.6043,0.474454,0.400796,0.602616,-0.501109,0.8089,-0.0865,-0.0025,0.01527,0.0165,-0.02653,0.471,0.1465,9.6938
1771240796.9437897,1055205.2821,6125689.6154,1424221.6438,0.473859,0.401005,0.60295,-0.501103,0.8059,-0.0705,-0.0012,0.00548,-0.032,-0.02439,-0.3124,-0.1286,9.8579
1771240796.9925578,1055205.2785,6125689.6082,1424221.68,0.473333,0.401234,0.603651,-0.500572,0.8187,-0.0652,-0.0003,-0.0013,0.01688,-0.04587,0.1894,-0.8138,9.6773
1771240797.0418556,1055205.2732,6125689.599,1424221.7201,0.472753,0.401501,0.604444,-0.499949,0.847,-0.0475,-0.0163,-0.00859,0.06893,-0.04532,0.7051,0.1118,9.524
1771240797.0926447,1055205.2684,6125689.5895,1424221.7607,0.472566,0.401901,0.604847,-0.499317,0.8375,-0.0414,-0.0098,-0.0083,0.03559,-0.03541,0.5915,0.2031,9.8994
1771240797.1442397,1055205.2642,6125689.5802,1424221.8013,0.472456,0.402105,0.605259,-0.498756,0.8265,-0.0359,0.0011,-0.0119,-0.05294,-0.02727,-0.2737,-0.4298,9.8571
1771240797.2022977,1055205.2596,6125689.5714,1424221.8418,0.472396,0.40247,0.605574,-0.498137,0.835,-0.0468,0.0008,4e-05,-0.03864,-0.02947,-0.0981,-0.0439,9.718
1771240797.2429903,1055205.2539,6125689.5626,1424221.883,0.471645,0.402692,0.606217,-0.497886,0.8508,-0.0692,0.0027,0.0128,0.01043,-0.03677,-0.0934,0.1064,9.9489
1771240797.3006694,1055205.2522,6125689.5526,1424221.9218,0.471167,0.403079,0.606682,-0.49746,0.8512,-0.0561,0.0002,0.00145,0.00993,-0.0326,-0.1214,0.6943,9.7146
1771240797.342955,1055205.247,6125689.5435,1424221.9631,0.47088,0.403323,0.607149,-0.496963,0.853,-0.0473,-0.0039,-0.00524,0.02516,-0.02939,0.0904,-0.0024,9.5668
1771240797.3917766,1055205.2418,6125689.5343,1424222.0044,0.470725,0.403749,0.607442,-0.496407,0.8581,-0.0541,-0.006,-0.00104,0.01327,-0.03329,0.472,-0.185,9.7248
1771240797.4434884,1055205.2362,6125689.525,1424222.0462,0.470323,0.404158,0.607851,-0.495953,0.8606,-0.0601,-0.0035,0.00474,-0.02078,-0.03499,-0.0628,-0.2256,9.7774
1771240797.49545,1055205.2303,6125689.5159,1424222.0881,0.469833,0.40455,0.608302,-0.495545,0.8607,-0.0653,0.0037,0.00721,-0.01927,-0.02846,-0.3645,-0.3618,9.9898
1771240797.5460544,1055205.229,6125689.5041,1424222.1283,0.469335,0.404994,0.608713,-0.49515,0.8743,-0.0621,-0.0033,0.00968,0.03743,-0.03549,0.3944,0.0509,9.7159
1771240797.6032445,1055205.2227,6125689.4947,1424222.1706,0.468952,0.405464,0.608995,-0.49478,0.8776,-0.0653,-0.0056,0.00452,0.02448,-0.03445,0.2011,0.0165,9.6854
1771240797.6418133,1055205.2164,6125689.4853,1424222.2131,0.468409,0.405839,0.609482,-0.494388,0.8768,-0.0627,-0.0028,0.00269,0.00401,-0.033,-0.0391,-0.007,9.9957
1771240797.6983988,1055205.2102,6125689.476,1424222.2556,0.468019,0.406312,0.609888,-0.493869,0.8826,-0.0498,-0.0029,0.00185,0.00981,-0.03427,0.1584,0.5274,9.6144
1771240797.7418852,1055205.2045,6125689.4665,1424222.2985,0.467644,0.406611,0.610338,-0.493421,0.8897,-0.0458,-0.0017,-0.00385,0.0078,-0.03222,0.2007,0.1451,9.9293
1771240797.7926536,1055205.1989,6125689.4569,1424222.3418,0.46739,0.406987,0.610722,-0.492877,0.894,-0.0502,-0.0019,-0.00232,-0.0075,-0.02978,-0.0314,-0.3357,9.8312
1771240797.8420606,1055205.193,6125689.4473,1424222.3853,0.466932,0.407242,0.611247,-0.492449,0.9019,-0.047,-0.0053,-0.00356,0.0128,-0.03157,-0.1029,0.0225,9.6723
1771240797.8992908,1055205.1911,6125689.4336,1424222.4316,0.466566,0.407378,0.61178,-0.49202,0.9092,-0.0373,-0.005,-0.00837,0.01674,-0.03163,0.1248,-0.2686,9.8684
1771240797.9423554,1055205.1855,6125689.4237,1424222.4757,0.466304,0.40759,0.612268,-0.491486,0.913,-0.0386,-0.0044,-0.0089,0.01502,-0.0329,0.2892,-0.2446,9.7923
1771240797.9988158,1055205.1796,6125689.4137,1424222.5201,0.466062,0.407973,0.612634,-0.490942,0.9214,-0.0486,-0.0077,-0.00035,-0.01912,-0.03005,0.0378,-0.3422,9.6595
1771240798.0434108,1055205.1734,6125689.4034,1424222.5649,0.465539,0.408206,0.613166,-0.490579,0.9301,-0.0418,-0.0084,-0.00087,0.01326,-0.02789,-0.1154,-0.2179,9.8466
1771240798.1001418,1055205.1675,6125689.3931,1424222.6098,0.465343,0.408517,0.613555,-0.49002,0.9294,-0.0324,-0.0045,-0.00687,0.00512,-0.0306,0.1004,-0.037,10.0076
1771240798.142877,1055205.1671,6125689.381,1424222.6546,0.46524,0.408801,0.613931,-0.489409,0.9366,-0.0344,-0.0064,-0.00647,0.01043,-0.0307,0.2292,-0.2882,9.7158
1771240798.2091835,1055205.1611,6125689.3707,1424222.7002,0.465011,0.409185,0.614209,-0.488958,0.9491,-0.0373,-0.0053,-0.00049,0.01184,-0.02794,0.4622,-0.2514,9.8857
1771240798.247753,1055205.1553,6125689.3602,1424222.7463,0.464647,0.40929,0.614674,-0.488633,0.9506,-0.0254,-0.0033,-0.00748,-0.00724,-0.02322,-0.1172,-0.1458,9.7505
1771240798.3005927,1055205.1497,6125689.3499,1424222.7924,0.464506,0.409483,0.615047,-0.488134,0.954,-0.023,-0.0023,-0.00713,-0.00024,-0.02512,-0.095,-0.3709,9.767
1771240798.346978,1055205.144,6125689.3395,1424222.8388,0.464385,0.409756,0.615319,-0.487677,0.9582,-0.0247,-0.0032,-0.00485,-0.00291,-0.02469,0.0761,-0.0913,9.7869
1771240798.397888,1055205.1463,6125689.3296,1424222.8807,0.464151,0.409948,0.615659,-0.487308,0.9627,-0.0225,0.0004,-0.0021,-0.0016,-0.02263,-0.0364,-0.056,9.8073
1771240798.4426088,1055205.1406,6125689.3193,1424222.9274,0.463948,0.410193,0.615968,-0.486906,0.9599,-0.0281,0.0027,-0.0017,-0.00627,-0.0231,-0.1408,-0.3766,9.8606
1771240798.495585,1055205.1346,6125689.3093,1424222.9741,0.463805,0.410549,0.616175,-0.48648,0.9699,-0.0265,0.0043,-0.00068,0.02639,-0.02717,0.4297,0.119,9.7901
1771240798.5509346,1055205.1284,6125689.2993,1424223.021,0.463949,0.411174,0.616038,-0.485988,0.9641,-0.0394,-0.0001,0.01172,-0.06065,-0.01817,-0.1169,-0.6071,9.5135
1771240798.5936365,1055205.1216,6125689.2887,1424223.0686,0.46297,0.411079,0.616677,-0.486191,0.9902,-0.0282,-0.0049,0.00878,0.05188,-0.01604,-0.1507,0.285,9.7239
1771240798.6441617,1055205.121,6125689.2779,1424223.1131,0.463227,0.411581,0.616612,-0.485604,0.989,-0.0125,-0.0043,-0.00811,0.03182,-0.02397,0.9147,0.4109,9.6067
1771240798.6921728,1055205.1152,6125689.267,1424223.1611,0.463161,0.411766,0.616798,-0.485273,0.9927,-0.0208,-0.01,-0.00021,-0.01755,-0.01652,0.3657,-0.117,9.6302
1771240798.7454395,1055205.1093,6125689.256,1424223.2092,0.462855,0.411904,0.61712,-0.485039,0.9925,-0.0138,-0.0021,0.00122,-0.00671,-0.01845,-0.0583,-0.1346,10.0414
1771240798.792483,1055205.1034,6125689.2454,1424223.2573,0.462877,0.412309,0.61722,-0.484547,0.9929,-0.0139,-0.0,0.00095,-0.0287,-0.02343,-0.0728,0.0292,9.7289
1771240798.841658,1055205.0971,6125689.2348,1424223.3058,0.462632,0.41261,0.617436,-0.484249,1.0028,-0.0328,-0.0005,0.00709,-0.01109,-0.01917,-0.1675,-0.1414,9.8493
1771240798.8917427,1055205.0944,6125689.2215,1424223.3504,0.461973,0.412757,0.617826,-0.484256,1.0151,-0.0366,-0.0051,0.00903,0.0193,-0.01536,-0.4059,-0.0765,9.7612
1771240798.9424722,1055205.0877,6125689.2104,1424223.3996,0.461564,0.412836,0.618162,-0.484149,1.0226,-0.0189,-0.0079,-0.00516,0.02974,-0.01973,0.1205,0.1444,9.8635
1771240798.9948323,1055205.0816,6125689.199,1424223.4489,0.461602,0.412998,0.618331,-0.483759,1.0197,-0.0055,-0.0115,-0.00856,-0.01086,-0.01904,0.539,-0.0446,9.5048
1771240799.0419261,1055205.0756,6125689.1872,1424223.4987,0.461281,0.41305,0.618739,-0.4835,1.03,-0.0124,-0.0148,0.00038,-0.01247,-0.01934,-0.2746,-0.2955,9.7652
1771240799.0928023,1055205.0694,6125689.1753,1424223.5487,0.461015,0.413192,0.619069,-0.48321,1.0374,-0.0029,-0.0135,-0.00269,-0.01863,-0.02009,-0.0092,0.2684,9.8879
1771240799.145562,1055205.0711,6125689.1583,1424223.5917,0.460741,0.41309,0.619543,-0.482951,1.043,0.0037,-0.0105,-0.01065,0.02301,-0.01332,-0.0145,0.1256,9.928
1771240799.1933067,1055205.0652,6125689.1466,1424223.6421,0.460719,0.413015,0.619791,-0.482717,1.041,-0.0051,-0.0067,-0.00495,0.0146,-0.01386,0.232,-0.222,10.0067
1771240799.2420108,1055205.0585,6125689.1351,1424223.6927,0.460324,0.413133,0.620133,-0.482554,1.0536,-0.021,-0.0037,0.00726,0.00764,-0.02649,0.2636,-0.2159,9.7963
1771240799.2979283,1055205.0515,6125689.1236,1424223.7437,0.460252,0.413666,0.620244,-0.482023,1.0535,-0.001,-0.0074,-0.00305,-0.03955,-0.03157,0.1641,0.7605,9.7775
1771240799.3432798,1055205.0458,6125689.1116,1424223.7952,0.460157,0.413741,0.620584,-0.481611,1.0575,0.0201,-0.008,-0.00936,-0.06641,-0.00899,-0.5886,0.6785,9.928
1771240799.3926005,1055205.0408,6125689.0992,1424223.8471,0.460191,0.413588,0.620927,-0.481269,1.0758,0.0252,-0.0128,-0.00973,-0.03031,-0.00684,-0.7491,0.322,9.849
1771240799.4426677,1055205.037,6125689.0878,1424223.8836,0.460133,0.413498,0.62124,-0.480997,1.083,0.0041,-0.0114,-0.00893,0.02847,-0.01353,-0.1867,0.2867,10.0699
1771240799.493279,1055205.0306,6125689.0757,1424223.9359,0.460023,0.413612,0.621479,-0.480695,1.0837,-0.0115,-0.0061,-0.0041,0.01443,-0.01562,0.0201,-0.0842,9.7931
1771240799.543135,1055205.0237,6125689.0639,1424223.9884,0.459941,0.413873,0.621606,-0.480386,1.0906,-0.0157,-0.0049,-0.00012,0.00364,-0.01498,0.2076,-0.1281,9.7735
1771240799.5998678,1055205.0168,6125689.0519,1424224.0413,0.459838,0.414047,0.621673,-0.480247,1.0977,-0.0094,-0.008,0.00198,-0.01286,-0.00939,-0.0088,-0.1901,9.7576
1771240799.6461241,1055205.0098,6125689.0396,1424224.0946,0.459581,0.41409,0.6218,-0.48029,1.1,-0.0117,-0.0072,0.00639,-0.01079,-0.00458,-0.3202,-0.3413,9.8052
1771240799.6915965,1055205.0027,6125689.0275,1424224.1478,0.459584,0.414389,0.621673,-0.480194,1.0992,-0.0172,-0.0084,0.01017,-0.01481,-0.0067,0.1179,-0.6122,9.7297
1771240799.745964,1055204.9856,6125689.0142,1424224.2137,0.459368,0.414689,0.62156,-0.480288,1.1166,-0.0291,-0.0123,0.01442,-0.0092,-0.00338,0.1375,-0.0702,9.7922
1771240799.7970643,1055204.9778,6125689.0017,1424224.2679,0.459165,0.414923,0.621481,-0.480383,1.1251,-0.0155,-0.01,0.00956,-0.01271,-0.001,-0.2066,0.0546,9.9489
1771240799.8464327,1055204.9708,6125688.9891,1424224.3225,0.459079,0.415061,0.621461,-0.480372,1.135,0.0055,-0.0067,0.00564,0.00015,-0.00025,-0.0864,0.1653,9.9954
1771240799.8925014,1055204.9645,6125688.9765,1424224.3776,0.459181,0.415172,0.621253,-0.480446,1.1443,0.016,-0.0076,0.0064,0.01174,0.00844,0.3021,0.4862,9.7599
1771240799.94718,1055204.9589,6125688.9634,1424224.4333,0.459087,0.414878,0.621196,-0.480865,1.1505,0.0295,-0.0109,0.00011,-0.00044,0.0201,-0.3189,0.1584,9.6396
1771240799.992148,1055204.9417,6125688.9479,1424224.5149,0.459246,0.414446,0.621063,-0.481257,1.1696,0.0409,-0.0089,-0.00776,0.00121,0.02373,-0.3143,0.046,9.6945
1771240800.04699,1055204.9373,6125688.9343,1424224.5718,0.459625,0.414094,0.620832,-0.481496,1.1822,0.0509,-0.0075,-0.00764,0.01242,0.02032,0.4609,0.0131,9.9873
1771240800.0925124,1055204.9332,6125688.9206,1424224.6293,0.459969,0.413709,0.620577,-0.481827,1.1884,0.0561,-0.0076,-0.0058,-0.00521,0.02531,0.2569,0.1748,9.8495
1771240800.1481726,1055204.9294,6125688.9065,1424224.6874,0.460352,0.413259,0.620312,-0.482189,1.2011,0.0639,-0.0083,-0.00791,-0.00743,0.02947,0.1616,0.3003,10.0421
1771240800.195761,1055204.9259,6125688.8924,1424224.746,0.460817,0.412745,0.619991,-0.482597,1.2081,0.0648,-0.0068,-0.00796,0.0037,0.03229,0.329,-0.0179,9.7884
1771240800.2619586,1055204.9221,6125688.8784,1424224.8047,0.461148,0.412266,0.619624,-0.483162,1.2075,0.049,-0.0033,0.00141,-0.01148,0.03683,0.0277,-0.1186,9.6922
1771240800.299655,1055204.9107,6125688.8691,1424224.8587,0.461434,0.411922,0.6192,-0.483725,1.2168,0.0316,-0.0057,0.00483,0.01713,0.03287,0.3288,-0.1718,9.6803
1771240800.3672414,1055204.9057,6125688.8551,1424224.918,0.461597,0.411515,0.618831,-0.484388,1.2235,0.0346,-0.0047,0.00264,-0.00179,0.03457,-0.005,0.2743,9.8821
1771240800.3928814,1055204.9012,6125688.841,1424224.9776,0.461721,0.411013,0.618563,-0.485038,1.2273,0.0363,-0.0016,0.00446,0.00221,0.03556,-0.3969,0.1047,9.7394
1771240800.44224,1055204.897,6125688.8271,1424225.0373,0.461894,0.410567,0.618272,-0.485621,1.2346,0.0489,-0.0005,-0.00246,0.02849,0.03233,0.1494,0.4995,9.837
1771240800.491725,1055204.8933,6125688.8127,1424225.0974,0.462089,0.409987,0.618018,-0.48625,1.2473,0.052,-0.004,-0.0018,0.05557,0.03259,0.5304,0.0787,9.624
1771240800.5474098,1055204.8814,6125688.8049,1424225.1623,0.462707,0.409664,0.61743,-0.486681,1.2337,0.049,0.0081,-0.00683,-0.03094,0.03294,0.146,0.2221,9.9282
1771240800.5922244,1055204.8773,6125688.7911,1424225.2227,0.462942,0.409199,0.617112,-0.487251,1.2315,0.0313,0.0086,0.00957,-0.06831,0.03741,-0.7406,0.3132,9.7884
1771240800.6415613,1055204.8727,6125688.7774,1424225.2832,0.46305,0.408903,0.616719,-0.487895,1.2463,0.0277,0.0078,0.0144,-0.03095,0.03797,-0.38,0.719,9.8744
1771240800.6926908,1055204.8679,6125688.7633,1424225.3443,0.463176,0.408585,0.616258,-0.488622,1.2653,0.0228,0.0044,0.01468,0.01326,0.03516,-0.4981,0.6167,9.9521
1771240800.7435677,1055204.8631,6125688.7493,1424225.4058,0.463355,0.40833,0.615741,-0.489317,1.27,0.0155,0.0076,0.01386,0.04137,0.03515,0.0723,0.415,9.845
1771240800.7933087,1055204.8584,6125688.7355,1424225.4672,0.463743,0.40829,0.615052,-0.48985,1.267,0.017,0.0096,0.00967,0.02027,0.03228,0.6366,0.212,9.7965
1771240800.8444624,1055204.8468,6125688.7283,1424225.5217,0.464181,0.408215,0.614335,-0.490398,1.2669,0.0209,0.0059,0.01135,-0.02156,0.03511,0.1611,0.3048,9.6873
1771240800.892489,1055204.8425,6125688.7141,1424225.5836,0.464574,0.408024,0.613686,-0.490995,1.2788,0.0266,0.0027,0.00844,-0.00855,0.03837,0.248,0.2335,9.7161
1771240800.943786,1055204.8385,6125688.6996,1424225.6459,0.464889,0.407682,0.613134,-0.49167,1.2804,0.0309,0.0035,0.00519,-0.00908,0.04033,-0.3063,0.2701,9.7655
1771240800.9920528,1055204.8349,6125688.6852,1424225.7083,0.465563,0.407597,0.612333,-0.492103,1.283,0.0248,0.0031,0.00619,-0.0447,0.03942,-0.092,-0.2492,9.8095
1771240801.0426111,1055204.8308,6125688.6705,1424225.7712,0.46587,0.407371,0.611721,-0.492758,1.3031,0.0142,-0.0048,0.01372,-0.00033,0.03891,0.1511,-0.648,9.5866
1771240801.0955172,1055204.8279,6125688.6676,1424225.7962,0.466026,0.407004,0.611206,-0.493554,1.2925,0.0281,-0.0005,0.00811,0.00413,0.0409,-0.0652,0.1273,9.9306
1771240801.1531475,1055204.8248,6125688.653,1424225.859,0.466688,0.406723,0.610479,-0.494058,1.2899,0.0424,0.0065,-0.00312,-0.02046,0.04181,0.0006,-0.0587,9.9564
1771240801.19304,1055204.8222,6125688.6385,1424225.9221,0.467258,0.406348,0.609824,-0.494637,1.3015,0.0419,0.0084,0.00258,-0.0084,0.04328,0.2137,-0.1593,9.8856
1771240801.2421832,1055204.8199,6125688.6237,1424225.986,0.467525,0.405681,0.609481,-0.495354,1.3179,0.0556,0.0048,-0.00565,-0.01987,0.04332,0.1567,-0.0246,9.5777
1771240801.2941754,1055204.8184,6125688.6082,1424226.0508,0.467757,0.404733,0.609395,-0.496016,1.3335,0.0735,0.0082,-0.01437,0.02927,0.04018,-0.2067,0.2553,10.1384
1771240801.3440921,1055204.8152,6125688.6004,1424226.103,0.468484,0.404074,0.608911,-0.496462,1.3106,0.0685,0.0144,-0.01118,0.00842,0.04127,-0.0855,0.013,9.8248
1771240801.3921702,1055204.8143,6125688.5856,1424226.1671,0.468922,0.403274,0.608573,-0.497112,1.3187,0.0671,0.0118,-0.01505,0.01008,0.04351,0.3764,0.0318,9.6564
1771240801.441575,1055204.8136,6125688.5704,1424226.2316,0.469459,0.402456,0.608268,-0.497642,1.3307,0.0725,0.0082,-0.01466,0.00599,0.04231,0.1783,-0.1911,9.8553
1771240801.4958723,1055204.8128,6125688.555,1424226.2965,0.469948,0.401736,0.607885,-0.498229,1.3306,0.065,0.0103,-0.00535,0.00061,0.04253,-0.0799,0.047,9.8406
1771240801.54908,1055204.8119,6125688.5399,1424226.3614,0.470308,0.401037,0.607511,-0.498908,1.33,0.0614,0.0182,-0.00398,-0.00519,0.04357,-0.1398,0.0772,10.0758
1771240801.5922427,1055204.8114,6125688.5249,1424226.4264,0.470926,0.400463,0.606998,-0.499411,1.3331,0.0648,0.0192,-0.01134,-0.02097,0.04435,-0.4077,-0.0945,9.8575
1771240801.643778,1055204.809,6125688.516,1424226.4627,0.471571,0.399864,0.606473,-0.49992,1.3332,0.0605,0.0129,-0.00698,-0.01372,0.04622,-0.0479,-0.1878,9.7136
1771240801.6998315,1055204.8084,6125688.5004,1424226.528,0.472134,0.399306,0.605927,-0.500496,1.3521,0.0595,0.003,-0.00211,0.01828,0.04484,0.4084,-0.222,9.729
1771240801.7448022,1055204.8074,6125688.4844,1424226.5939,0.472501,0.398759,0.605363,-0.501269,1.3588,0.0443,-0.0016,0.00616,0.00431,0.0432,-0.0241,-0.0998,9.6962
1771240801.7931433,1055204.806,6125688.4684,1424226.6599,0.472828,0.398301,0.604827,-0.501971,1.354,0.0349,0.0001,0.00433,-0.00895,0.04382,-0.2813,-0.0806,9.7898
1771240801.8458135,1055204.8046,6125688.4524,1424226.7259,0.473126,0.397883,0.604267,-0.502695,1.3637,0.0309,-0.0001,0.00774,0.01406,0.0449,-0.1141,-0.3214,9.874
1771240801.89765,1055204.8034,6125688.4362,1424226.7925,0.473478,0.39732,0.603722,-0.503463,1.378,0.0393,-0.0001,-0.00129,0.01592,0.04914,0.0966,-0.2757,9.638
1771240801.9476423,1055204.8076,6125688.4202,1424226.8265,0.474204,0.396872,0.602988,-0.504013,1.3697,0.0463,-0.0049,-0.00282,0.00321,0.0475,0.2986,-0.9424,9.8614
1771240802.0047355,1055204.8067,6125688.4038,1424226.893,0.47481,0.396793,0.602061,-0.504613,1.3777,0.0258,-0.0092,0.01431,-0.00025,0.03936,0.6789,-0.8361,9.5378
1771240802.0442128,1055204.8049,6125688.387,1424226.9604,0.475073,0.396757,0.601234,-0.505379,1.3976,0.0113,-0.0177,0.02153,-0.04412,0.03492,0.1991,-0.5113,9.6615
1771240802.0942192,1055204.8027,6125688.3695,1424227.0288,0.474872,0.396381,0.600799,-0.506379,1.4082,0.0032,-0.0203,0.02483,-0.02286,0.03831,-0.2022,-0.7835,9.7155
1771240802.163285,1055204.8,6125688.3522,1424227.0973,0.474616,0.396091,0.600255,-0.507489,1.4189,-0.0053,-0.018,0.02995,0.01701,0.04117,0.1441,-0.4844,9.7009
1771240802.221428,1055204.7918,6125688.3224,1424227.1761,0.474293,0.395857,0.599669,-0.508665,1.4337,-0.0191,-0.027,0.03547,0.00243,0.03624,-0.1471,-0.2356,9.6263
1771240802.243621,1055204.7886,6125688.3044,1424227.2456,0.474095,0.395749,0.599032,-0.509683,1.4345,-0.0147,-0.021,0.03062,-0.00431,0.03875,-0.2575,-0.2885,10.059
1771240802.304944,1055204.7859,6125688.2865,1424227.3153,0.474022,0.395686,0.598394,-0.51055,1.4448,-0.0001,-0.018,0.02678,-0.00324,0.03503,-0.2263,0.063,10.0157
1771240802.3423011,1055204.7838,6125688.2686,1424227.3855,0.474141,0.395606,0.597735,-0.511272,1.4537,0.0129,-0.0162,0.01554,-0.00303,0.03074,0.1295,0.5578,9.8033
1771240802.4039223,1055204.7829,6125688.2507,1424227.4561,0.474106,0.395114,0.597376,-0.512104,1.4461,0.0287,-0.0005,0.00777,-0.03917,0.03656,-0.8542,0.3916,10.1342
1771240802.4426064,1055204.7827,6125688.2289,1424227.5218,0.474213,0.394465,0.597168,-0.512747,1.4517,0.0509,0.0067,-0.00264,-0.02405,0.0376,-0.6506,0.1471,10.0418
1771240802.5091972,1055204.7837,6125688.2114,1424227.5925,0.474401,0.393703,0.597027,-0.513323,1.4589,0.0617,0.0078,-0.00914,0.02693,0.03337,-0.4698,0.4021,9.8538
1771240802.5428631,1055204.7855,6125688.1938,1424227.6632,0.474858,0.392994,0.596804,-0.513703,1.4599,0.0688,0.008,-0.01884,0.02362,0.03236,0.1981,0.1518,9.9213
1771240802.607696,1055204.7875,6125688.176,1424227.7339,0.475492,0.392428,0.596489,-0.513915,1.455,0.0649,0.0024,-0.01947,-0.01368,0.03243,-0.3079,-0.164,9.6373
1771240802.64732,1055204.7898,6125688.1579,1424227.8047,0.476068,0.391707,0.59627,-0.514185,1.46,0.0731,0.0005,-0.02141,-0.01045,0.03526,-0.2074,-0.1681,9.8118
1771240802.6937704,1055204.7924,6125688.1396,1424227.8758,0.476657,0.390954,0.596045,-0.514473,1.4732,0.0757,-0.0007,-0.01861,-0.00393,0.03787,0.0163,-0.0816,9.7505
1771240802.7420795,1055204.7948,6125688.1211,1424227.9475,0.477299,0.390394,0.595671,-0.514737,1.491,0.0634,-0.008,-0.00778,-0.00265,0.03159,0.3015,-0.5636,9.6694
1771240802.7929547,1055204.7934,6125688.0932,1424228.0341,0.477562,0.390041,0.59521,-0.515293,1.52,0.0255,-0.0286,0.01385,0.00419,0.02657,0.2949,-0.4539,9.3757
1771240802.8455229,1055204.7927,6125688.0732,1424228.1079,0.477369,0.389884,0.594795,-0.51607,1.5296,-0.0014,-0.0335,0.02547,-0.02126,0.02749,-0.1943,-0.4571,9.6311
1771240802.8965125,1055204.791,6125688.053,1424228.1822,0.47685,0.389648,0.594482,-0.517088,1.5435,-0.0106,-0.033,0.03407,0.03065,0.03013,-0.0959,0.011,9.813
1771240802.9451187,1055204.7894,6125688.0327,1424228.2568,0.476429,0.389411,0.594022,-0.518181,1.5477,-0.0043,-0.0274,0.03182,0.00502,0.03665,-0.2638,0.6214,9.8863
1771240802.9930313,1055204.7863,6125688.0092,1424228.3338,0.476232,0.389167,0.593488,-0.519156,1.5574,-0.002,-0.0224,0.02593,0.00501,0.03384,-0.0789,0.4457,9.9241
1771240803.043544,1055204.7856,6125687.9888,1424228.4094,0.475982,0.388909,0.593105,-0.520017,1.5712,0.0073,-0.0229,0.0201,0.01337,0.0258,-0.0562,0.7145,9.7918
1771240803.0973217,1055204.7856,6125687.9682,1424228.4854,0.475772,0.388634,0.592827,-0.520731,1.5822,0.0168,-0.0195,0.01444,0.01954,0.02429,0.086,0.4854,9.969
1771240803.143048,1055204.7861,6125687.9473,1424228.562,0.475377,0.388058,0.592795,-0.521557,1.587,0.0231,-0.0188,0.00912,0.0355,0.02762,-0.491,0.349,9.7976
1771240803.1991992,1055204.7871,6125687.9263,1424228.6385,0.475406,0.387564,0.592582,-0.52214,1.5869,0.0314,-0.0205,-0.00223,0.01993,0.02796,-0.2544,0.2427,9.9638
1771240803.242966,1055204.7884,6125687.9051,1424228.7151,0.475597,0.387048,0.592408,-0.522546,1.5937,0.0314,-0.0188,-0.00745,0.01341,0.02309,-0.1047,0.1234,9.9991
1771240803.2931163,1055204.7929,6125687.8845,1424228.78,0.475911,0.386744,0.592127,-0.522803,1.5948,0.0381,-0.0154,-0.00325,0.02076,0.01951,0.155,0.2788,9.8634
1771240803.341773,1055204.7951,6125687.8635,1424228.8572,0.476068,0.386308,0.592,-0.523126,1.6073,0.0571,-0.007,-0.00938,0.01179,0.01998,0.2679,0.7689,10.1548
1771240803.3921409,1055204.7986,6125687.8426,1424228.9348,0.4764,0.385591,0.591993,-0.523361,1.6042,0.0759,0.0053,-0.02116,-0.00462,0.02805,-0.4877,-0.0201,10.0599
1771240803.4425836,1055204.8015,6125687.8166,1424229.0073,0.476639,0.384769,0.591972,-0.523772,1.6017,0.056,-0.0011,-0.00793,0.03564,0.0316,-0.3053,-0.5772,9.6645
1771240803.4973648,1055204.8039,6125687.7957,1424229.0845,0.477269,0.384703,0.591219,-0.524098,1.6056,0.0259,-0.0197,0.01092,-0.04974,0.0356,0.4584,-0.6687,9.2242
1771240803.5464735,1055204.8044,6125687.7735,1424229.1629,0.477226,0.38461,0.590678,-0.524815,1.6478,-0.0099,-0.041,0.02526,0.03895,0.02513,0.2885,-0.4773,9.6759
1771240803.5920815,1055204.8039,6125687.751,1424229.2419,0.47712,0.38475,0.59,-0.52557,1.6346,-0.013,-0.0319,0.03017,-0.02878,0.02212,-0.4051,0.4534,9.8531
1771240803.6821978,1055204.8046,6125687.7302,1424229.292,0.477143,0.384941,0.58927,-0.526228,1.6257,-0.0036,-0.0173,0.02717,-0.01602,0.0269,-0.1984,0.9684,10.3213
1771240803.696337,1055204.8055,6125687.7094,1424229.3704,0.477574,0.385221,0.588382,-0.526625,1.6146,0.0161,-0.0009,0.01332,-0.08408,0.0265,-0.6548,1.2447,10.0963
1771240803.742598,1055204.8074,6125687.689,1424229.4491,0.477949,0.385181,0.58782,-0.526942,1.6324,0.0278,0.0096,0.00124,-0.02447,0.02659,-0.4007,1.2035,10.0416
1771240803.796872,1055204.8106,6125687.6688,1424229.5285,0.478273,0.384827,0.587505,-0.527258,1.6364,0.0466,0.0202,-0.00915,-0.02791,0.03094,-0.9158,0.8161,10.0865
1771240803.8519182,1055204.8134,6125687.6451,1424229.6062,0.478749,0.384398,0.58716,-0.527522,1.6437,0.0635,0.0168,-0.01735,0.00207,0.03152,-0.2484,0.8875,9.7634
1771240803.9068875,1055204.819,6125687.6248,1424229.6856,0.479588,0.383845,0.586794,-0.527571,1.6347,0.0825,0.0189,-0.03005,-0.02209,0.03484,-0.4261,0.1634,9.5581
1771240803.9464462,1055204.8249,6125687.6047,1424229.7645,0.48055,0.383433,0.586364,-0.527473,1.6294,0.068,0.0166,-0.02003,-0.007,0.02933,-0.1183,-0.8819,9.7801
1771240803.9929328,1055204.8308,6125687.5898,1424229.8545,0.481298,0.383183,0.585953,-0.52743,1.6334,0.0647,0.0154,-0.01407,-0.0057,0.02429,-0.1749,-0.2191,9.5411
1771240804.0424643,1055204.836,6125687.5695,1424229.9333,0.48191,0.382787,0.585619,-0.52753,1.6309,0.0738,0.006,-0.01867,0.00946,0.02712,0.0606,0.4095,9.5435
1771240804.0936825,1055204.8424,6125687.5487,1424230.0116,0.482638,0.381895,0.585447,-0.527701,1.608,0.1022,-0.0004,-0.0342,-0.04027,0.04191,-0.7965,0.1113,9.7143
1771240804.1489916,1055204.849,6125687.5279,1424230.0885,0.483958,0.381494,0.584592,-0.52773,1.5827,0.0762,-0.0189,-0.01353,-0.08886,0.04806,-1.0434,-0.9148,9.2684
1771240804.1921666,1055204.8538,6125687.5063,1424230.1652,0.484817,0.381354,0.583852,-0.527862,1.6122,0.0515,-0.0369,-0.00616,0.02467,0.02707,0.4788,0.0561,9.6663
1771240804.248926,1055204.8583,6125687.485,1424230.2421,0.486024,0.381821,0.582711,-0.527675,1.6101,0.019,-0.0405,0.00806,-0.04057,0.02272,0.8567,-0.4199,9.8779
1771240804.2934313,1055204.861,6125687.4633,1424230.3201,0.48639,0.382088,0.581801,-0.528149,1.6289,0.0091,-0.0438,0.02698,-0.02699,0.03894,0.0935,0.2181,9.489
1771240804.3462698,1055204.8642,6125687.4413,1424230.3991,0.486812,0.382127,0.580837,-0.528793,1.6456,0.0252,-0.0379,0.01746,-0.0385,0.04394,-0.1405,0.431,10.3029
1771240804.4056957,1055204.8669,6125687.4068,1424230.5182,0.48739,0.38218,0.57982,-0.529338,1.6543,0.0059,-0.0313,0.02128,-0.0162,0.03464,-0.2728,-0.1516,9.9464
1771240804.4502764,1055204.8696,6125687.3852,1424230.5983,0.487827,0.382615,0.578803,-0.529734,1.6791,-0.004,-0.0429,0.02176,0.01322,0.02422,0.9554,0.2191,9.6389
1771240804.492667,1055204.8732,6125687.3627,1424230.6794,0.488201,0.38273,0.578035,-0.530144,1.691,0.0196,-0.0501,0.0059,-0.01675,0.03034,0.5151,-0.0348,9.7524
1771240804.5620415,1055204.8786,6125687.3393,1424230.7609,0.488576,0.382225,0.577707,-0.530521,1.7094,0.0732,-0.0623,-0.01559,0.03057,0.03297,0.72,0.8511,9.3706
1771240804.593353,1055204.8858,6125687.3154,1424230.8426,0.489347,0.381487,0.577382,-0.530695,1.6981,0.0915,-0.0558,-0.02416,-0.0202,0.03579,-0.5252,-0.0541,9.9925
1771240804.641665,1055204.8927,6125687.2913,1424230.9211,0.49028,0.381097,0.576826,-0.530719,1.6696,0.0798,-0.0372,-0.01121,-0.05845,0.03444,-1.0354,-0.1696,10.3096
1771240804.6919804,1055204.8995,6125687.2703,1424231.0009,0.491495,0.381435,0.57579,-0.530477,1.6487,0.0647,-0.0062,-0.00014,-0.02569,0.02836,-0.1119,0.5702,10.3919
1771240804.7515018,1055204.906,6125687.2507,1424231.0804,0.492488,0.381692,0.574693,-0.530561,1.6533,0.0499,-0.0028,0.00344,-0.00614,0.03181,1.0999,0.6067,9.8104
1771240804.792235,1055204.9119,6125687.2305,1424231.1608,0.492234,0.380977,0.574706,-0.531296,1.6581,0.0205,-0.0139,0.01182,-0.01842,0.0349,-0.7903,-0.4848,9.3349
1771240804.8419867,1055204.9165,6125687.2095,1424231.241,0.493135,0.381584,0.573442,-0.531391,1.6872,0.0139,-0.0483,0.01812,0.04098,0.02854,1.1094,0.1449,9.2109
1771240804.893389,1055204.9219,6125687.2033,1424231.2679,0.49357,0.381721,0.572593,-0.531803,1.6458,0.0237,-0.0451,0.01698,-0.04186,0.0327,-0.5625,0.7249,9.748
1771240804.941826,1055204.9272,6125687.1826,1424231.3468,0.49397,0.381876,0.571839,-0.532132,1.6278,0.0338,-0.025,0.00825,-0.01616,0.02635,-0.413,0.6276,9.9595
1771240804.9938507,1055204.9335,6125687.1624,1424231.4257,0.494462,0.381812,0.571265,-0.532337,1.6505,0.0475,-0.024,-0.00252,0.01473,0.02641,0.9993,0.6972,9.77
1771240805.0465133,1055204.9403,6125687.1416,1424231.5058,0.49451,0.381231,0.571117,-0.532867,1.6744,0.0425,-0.0266,-0.00359,0.06916,0.02497,0.7151,0.3148,9.9872
1771240805.096974,1055204.9474,6125687.1204,1424231.5866,0.49402,0.38002,0.571533,-0.533741,1.6603,0.0529,-0.0202,-0.01147,0.0295,0.03224,-1.2095,0.1218,10.0836
1771240805.1450956,1055204.9497,6125687.1082,1424231.6536,0.494659,0.379711,0.571087,-0.533847,1.6277,0.0611,-0.0136,-0.02136,-0.02715,0.02838,-0.1762,0.6054,9.72
1771240805.1960998,1055204.9578,6125687.0877,1424231.7321,0.495039,0.379019,0.571015,-0.534062,1.6224,0.0519,-0.0216,-0.01245,-0.02777,0.02677,-0.6805,-0.9715,9.7646
1771240805.2452567,1055204.9648,6125687.0675,1424231.81,0.49539,0.378826,0.570557,-0.534363,1.6109,0.0328,-0.0165,0.00392,0.00083,0.02153,0.082,-0.256,10.3001
1771240805.2963352,1055204.9713,6125687.0477,1424231.8877,0.495518,0.378496,0.570396,-0.53465,1.6052,0.0315,-0.009,-0.00993,0.00381,0.01461,0.1678,0.2533,9.8655
1771240805.3423486,1055204.9739,6125687.0177,1424232.0273,0.495672,0.377858,0.570626,-0.534713,1.5936,0.0533,0.0034,-0.02741,-0.0696,0.01738,-0.9016,0.3581,10.0989
1771240805.3979123,1055204.9825,6125686.9985,1424232.1045,0.496144,0.37724,0.570672,-0.534663,1.6092,0.0754,0.0053,-0.02199,0.08082,0.02222,0.5985,-0.0895,10.2747
1771240805.4421444,1055204.9914,6125686.9795,1424232.1812,0.496832,0.37681,0.57018,-0.534853,1.5822,0.075,0.0017,-0.01561,0.00058,0.03066,0.2982,0.2343,9.3769
1771240805.494719,1055205.0005,6125686.9602,1424232.2575,0.497414,0.375992,0.570101,-0.534972,1.5696,0.082,-0.0035,-0.0312,-0.08282,0.03488,-0.8587,0.4641,9.4525
1771240805.5499456,1055205.0088,6125686.9408,1424232.3333,0.497339,0.375244,0.570377,-0.535272,1.5662,0.0144,-0.0086,0.00517,0.06721,0.01546,-1.0421,-2.647,10.0933
1771240805.5955217,1055205.0143,6125686.9223,1424232.4076,0.49759,0.375645,0.569585,-0.535601,1.518,0.0013,-0.0079,0.01933,-0.00325,0.01288,0.0423,-0.3979,9.7193
1771240805.6438901,1055205.0169,6125686.904,1424232.497,0.498363,0.376302,0.56854,-0.535531,1.5078,0.0175,-0.0199,0.00387,-0.05322,0.01828,0.8933,-0.126,9.2677
1771240805.6936123,1055205.0228,6125686.8848,1424232.5704,0.498347,0.376,0.568274,-0.536041,1.5245,0.0128,-0.0282,0.00939,0.00107,0.02295,-0.1042,-0.0283,9.7608
1771240805.7433984,1055205.0284,6125686.8657,1424232.6437,0.498066,0.375506,0.568072,-0.536861,1.5068,0.0057,-0.0188,0.01423,0.01174,0.02769,-0.4321,0.6193,9.8738
1771240805.793427,1055205.0342,6125686.8471,1424232.7159,0.498146,0.375361,0.567621,-0.537365,1.477,0.0051,-0.0171,0.00904,-0.02981,0.01972,-0.8786,-0.0768,9.8268
1771240805.8439558,1055205.0364,6125686.8279,1424232.7993,0.498403,0.375415,0.567127,-0.53761,1.4542,0.0142,-0.0203,0.00196,-0.00833,0.01521,-0.7417,0.1866,9.5994
1771240805.8946908,1055205.0429,6125686.8098,1424232.8689,0.498801,0.375317,0.566824,-0.53763,1.4379,0.0364,-0.0235,-0.00935,0.00566,0.01574,0.0584,0.5015,9.6647
1771240805.941821,1055205.0504,6125686.7914,1424232.9376,0.499358,0.375231,0.566547,-0.537465,1.4237,0.0523,-0.03,-0.01627,-0.0001,0.01197,-0.5556,0.4936,9.6024
1771240805.9965594,1055205.0587,6125686.7731,1424233.0054,0.499729,0.374612,0.566651,-0.537443,1.4032,0.0727,-0.0266,-0.03032,0.01962,0.0156,-0.325,0.5827,9.931
1771240806.0420659,1055205.0677,6125686.755,1424233.072,0.499932,0.373561,0.566964,-0.537654,1.3739,0.069,-0.0207,-0.02783,0.03727,0.0266,-0.4171,-0.0986,9.9603
1771240806.0917814,1055205.0735,6125686.7343,1424233.1572,0.499845,0.372387,0.567355,-0.538136,1.3446,0.052,-0.0183,-0.01634,0.03409,0.027,-1.147,-0.7335,9.8395
1771240806.1478155,1055205.081,6125686.7173,1424233.2207,0.499824,0.371531,0.567609,-0.53848,1.3102,0.0373,-0.0153,-0.01716,0.08228,0.00945,-0.3904,-0.8714,9.723
1771240806.1965,1055205.0869,6125686.701,1424233.2826,0.499819,0.371092,0.567627,-0.538769,1.2707,0.0019,-0.0156,0.00556,0.06511,0.00855,0.5918,-0.8356,9.7768
1771240806.2425869,1055205.0909,6125686.6853,1424233.3427,0.499375,0.37085,0.567586,-0.53939,1.2101,-0.0251,-0.0187,0.02458,-0.00033,0.01027,-1.1405,-0.3612,9.5434
1771240806.3028827,1055205.0946,6125686.67,1424233.4,0.49904,0.370688,0.567394,-0.540013,1.166,-0.0016,-0.0222,0.01813,0.00067,0.01668,-0.9086,0.9309,9.794
1771240806.3488986,1055205.0911,6125686.6586,1424233.4536,0.498959,0.370663,0.567138,-0.540374,1.1145,-0.0106,-0.0129,0.01168,-0.00046,0.00991,-1.3618,0.6419,9.9171
1771240806.3956506,1055205.0952,6125686.645,1424233.5063,0.498789,0.370587,0.567115,-0.540606,1.064,0.0003,-0.0023,0.00343,-0.00621,0.00783,-1.2562,0.9255,10.0069
1771240806.4442298,1055205.0997,6125686.6323,1424233.5565,0.498573,0.370321,0.567258,-0.540838,1.0143,0.0013,0.0029,-0.00064,0.03778,0.00688,-1.0476,-0.1124,9.9354
1771240806.501751,1055205.1039,6125686.6204,1424233.6041,0.498612,0.370081,0.567154,-0.541075,0.9618,0.0021,0.0018,0.00044,0.0246,0.01418,-0.7652,0.2309,9.8147
1771240806.542087,1055205.108,6125686.6088,1424233.6493,0.498807,0.369841,0.566961,-0.541262,0.918,0.0025,-0.006,-0.00752,0.00564,0.01528,-0.6871,0.184,9.6321
1771240806.5989995,1055205.1056,6125686.5999,1424233.691,0.499142,0.369869,0.566709,-0.541197,0.875,0.0043,-0.0122,-0.00733,-0.0207,0.01074,-0.9599,0.2931,9.7041
1771240806.6432292,1055205.1095,6125686.5888,1424233.7322,0.499411,0.369957,0.566523,-0.541084,0.839,0.0048,-0.0124,-0.00284,-0.01742,0.00771,-0.888,0.0657,9.8808
1771240806.7046552,1055205.1135,6125686.5782,1424233.7718,0.49961,0.369943,0.566386,-0.541054,0.8132,0.0109,-0.0115,-0.00637,0.02434,0.007,-0.6477,0.0116,9.8169
1771240806.7417781,1055205.1173,6125686.5681,1424233.8098,0.499908,0.369902,0.566188,-0.541014,0.7736,0.0019,-0.0081,-0.00701,0.00482,0.00706,-0.3933,-0.6448,9.7914
1771240806.796619,1055205.1206,6125686.5586,1424233.8461,0.500067,0.36984,0.566032,-0.541072,0.7331,-0.007,-0.0086,-0.00209,-0.00702,0.00788,-0.7,-0.5748,9.6034
1771240806.8425455,1055205.1232,6125686.5496,1424233.8804,0.500158,0.36978,0.565862,-0.541206,0.6886,-0.0104,-0.0116,0.00115,-0.02699,0.00832,-0.7879,-0.2466,9.7781
1771240806.8940704,1055205.1233,6125686.545,1424233.8986,0.500103,0.369616,0.565865,-0.541367,0.6496,-0.0066,-0.0115,-0.00081,0.00637,0.0074,-0.924,-0.379,9.8702
1771240806.9472976,1055205.1258,6125686.537,1424233.9288,0.500257,0.369701,0.56564,-0.541401,0.6049,-0.0044,-0.0053,0.00196,-0.00976,0.00618,-0.7457,-0.1352,9.8531
1771240806.9948723,1055205.1283,6125686.5298,1424233.9573,0.500288,0.369582,0.565569,-0.541527,0.5731,-0.001,-0.0016,-0.0025,0.00393,0.00753,-0.7273,-0.049,9.8395
1771240807.042108,1055205.1306,6125686.5229,1424233.9841,0.500397,0.36953,0.565446,-0.541591,0.5397,-0.004,-0.0029,0.00064,0.00409,0.00632,-0.6902,-0.2464,9.8467
1771240807.0943785,1055205.1325,6125686.5165,1424234.0093,0.50038,0.369405,0.565398,-0.541743,0.5003,-0.0084,-0.0035,0.00144,-0.00819,0.00602,-0.9221,-0.0911,9.786
1771240807.1433244,1055205.1329,6125686.5216,1424233.996,0.500378,0.369374,0.565339,-0.541827,0.4529,-0.0084,-0.0017,0.00225,0.00725,0.00543,-0.7885,-0.0801,9.8424
1771240807.1928208,1055205.1345,6125686.5163,1424234.0169,0.500422,0.369392,0.565244,-0.541873,0.4143,-0.0056,-0.0036,0.00106,-0.00114,0.00175,-0.696,-0.027,9.7596
1771240807.2485335,1055205.1362,6125686.5113,1424234.0361,0.500513,0.369447,0.565107,-0.541895,0.3787,-0.0011,-0.0039,-0.00091,-0.00123,0.00404,-0.6596,-0.0634,9.7913
1771240807.2925973,1055205.1378,6125686.5067,1424234.0534,0.500625,0.369414,0.565026,-0.541897,0.3443,0.001,-0.005,-0.00264,0.00338,0.00353,-0.59,-0.136,9.7714
1771240807.3419185,1055205.1392,6125686.5025,1424234.0692,0.500753,0.369419,0.564926,-0.541881,0.3107,-0.0013,-0.0048,-0.00114,-0.00449,0.00167,-0.5045,-0.1219,9.8057
1771240807.3953745,1055205.1387,6125686.5157,1424234.0367,0.500763,0.369444,0.564898,-0.541884,0.2671,-0.003,-0.0018,0.00075,-0.00914,-0.00115,-0.667,-0.1071,9.8223
1771240807.445944,1055205.1397,6125686.5126,1424234.0489,0.500766,0.369442,0.5649,-0.541881,0.2358,-0.0013,-0.0019,-0.00059,-0.0038,0.00115,-0.6433,0.1145,9.7649
1771240807.4920142,1055205.1406,6125686.5098,1424234.0595,0.500818,0.36937,0.564896,-0.541884,0.2069,0.001,-0.003,-0.00202,-0.00556,0.00349,-0.6861,0.0507,9.8031
1771240807.54739,1055205.1415,6125686.5073,1424234.0688,0.500894,0.369302,0.564862,-0.541897,0.1768,0.0002,-0.0031,-0.00089,0.0005,0.00309,-0.6315,0.0063,9.8246
1771240807.5938668,1055205.1421,6125686.5052,1424234.0766,0.500936,0.369247,0.564844,-0.541914,0.147,-0.0017,-0.0033,-0.00279,0.00257,0.00222,-0.5968,-0.0046,9.8196
1771240807.647339,1055205.1425,6125686.5035,1424234.0829,0.500965,0.369225,0.564829,-0.541919,0.1178,-0.0053,-0.0037,2e-05,-0.00012,0.00097,-0.5708,-0.0697,9.7804
1771240807.6932642,1055205.1396,6125686.5076,1424234.0891,0.50094,0.369207,0.564857,-0.541925,0.0908,-0.0049,-0.0025,-0.00029,0.00271,0.00026,-0.5706,0.0309,9.7961
1771240807.7431612,1055205.1397,6125686.5066,1424234.0928,0.500954,0.369158,0.564876,-0.541926,0.0613,-0.0035,-0.0023,-0.00065,0.00164,0.00072,-0.6046,0.0014,9.8147
1771240807.7924194,1055205.1397,6125686.506,1424234.095,0.500953,0.369098,0.564877,-0.541966,0.0308,-0.0051,-0.0014,-0.00091,0.00445,0.00238,-0.5932,-0.0689,9.8278
1771240807.8417,1055205.1395,6125686.5058,1424234.0959,0.50095,0.369073,0.564864,-0.541998,0.0024,-0.0061,-0.0019,-0.0005,0.00094,0.00067,-0.6113,-0.0517,9.7549
1771240807.8941681,1055205.1395,6125686.5058,1424234.0959,0.50095,0.369073,0.564864,-0.541998,0.0024,-0.0061,-0.0019,-2e-05,-0.00207,-0.00111,-0.5201,0.009,9.8369
1771240807.9447973,1055205.1383,6125686.5058,1424234.0935,0.500965,0.369108,0.564863,-0.541962,-0.0492,0.0003,-0.0038,0.00184,-0.00597,-0.00125,-0.5568,0.0296,9.8011
1771240807.9968085,1055205.1381,6125686.5064,1424234.0906,0.501054,0.369075,0.564901,-0.541863,-0.0684,0.0083,0.0009,-0.00646,0.00154,-0.00146,-0.2155,0.2432,9.9518
1771240808.045043,1055205.1385,6125686.5075,1424234.0868,0.501358,0.369107,0.564822,-0.541642,-0.0857,0.0155,0.0079,-0.00836,-0.02306,0.00052,-0.2468,0.0793,9.9717
1771240808.0920188,1055205.139,6125686.509,1424234.0825,0.50165,0.369103,0.564768,-0.541431,-0.0895,0.0168,0.0117,-0.01031,-0.00443,0.00131,-0.0764,-0.0156,9.8368
1771240808.1465068,1055205.1395,6125686.5105,1424234.0782,0.501943,0.369154,0.564694,-0.541201,-0.0903,0.0155,0.011,-0.00874,-0.01268,-0.00101,-0.0311,-0.0819,9.7559
1771240808.195227,1055205.1396,6125686.502,1424234.1006,0.502222,0.369283,0.564594,-0.540959,-0.0903,0.0053,0.0064,-0.00478,-0.01596,-0.00302,-0.1603,-0.2836,9.8181
1771240808.2446826,1055205.1392,6125686.5035,1424234.0962,0.5024,0.369572,0.564458,-0.540739,-0.0919,-0.0053,0.0041,0.00149,-0.01925,-0.00687,0.0345,0.0056,9.6555
1771240808.2919133,1055205.1385,6125686.5047,1424234.0919,0.502486,0.369779,0.56436,-0.540619,-0.0854,-0.0055,-0.0018,0.00062,-0.00798,-0.00216,0.2467,-0.0103,9.6229
1771240808.3453753,1055205.1381,6125686.5055,1424234.0881,0.502497,0.369697,0.564348,-0.540677,-0.0751,0.0019,-0.0066,-0.00124,0.01063,0.00589,0.318,-0.1383,9.4421
1771240808.3924122,1055205.1377,6125686.506,1424234.0844,0.50255,0.369667,0.564287,-0.540713,-0.0699,0.0009,-0.0093,0.00105,0.00827,-0.00068,0.2944,-0.177,9.8169
1771240808.4457114,1055205.1373,6125686.5064,1424234.081,0.5025,0.369686,0.564313,-0.540719,-0.0695,0.0006,-0.0079,-0.00069,-0.00586,-0.00597,0.065,-0.1089,9.821
1771240808.4987755,1055205.1374,6125686.4973,1424234.1122,0.502497,0.369794,0.564337,-0.540622,-0.0559,0.003,-0.0091,0.0008,-0.00871,-0.00343,0.1355,0.0199,9.8272
1771240808.5466554,1055205.1372,6125686.4975,1424234.1095,0.502481,0.369743,0.564384,-0.540624,-0.0509,0.0085,-0.0087,-0.00197,-0.00212,0.00164,0.0676,0.2479,9.8783
1771240808.5925322,1055205.1372,6125686.4976,1424234.1071,0.502479,0.369602,0.564431,-0.540673,-0.0484,0.0075,-0.0086,-0.00111,-0.00189,0.00256,-0.1116,0.0912,9.8069
1771240808.6542916,1055205.1371,6125686.4977,1424234.1047,0.502484,0.369603,0.56442,-0.540679,-0.0456,0.0003,-0.0087,0.00203,-0.00044,-0.00012,0.0592,0.0212,9.7904
1771240808.691539,1055205.1367,6125686.4978,1424234.1025,0.502429,0.369657,0.564438,-0.540674,-0.0418,0.0008,-0.0082,0.00255,0.00249,-0.00261,0.0759,0.215,9.865
1771240808.7504535,1055205.1376,6125686.4921,1424234.1237,0.502463,0.369664,0.564467,-0.540607,-0.0336,0.0055,-0.0082,-0.00144,-2e-05,-5e-05,0.0428,0.1721,9.8013
1771240808.794407,1055205.1376,6125686.4921,1424234.122,0.502489,0.36965,0.564457,-0.540603,-0.0316,0.0052,-0.0083,0.00083,0.00042,0.00067,0.0652,0.0206,9.8133
1771240808.85185,1055205.1375,6125686.492,1424234.1204,0.50249,0.36964,0.56446,-0.540605,-0.0294,0.0012,-0.0082,-0.00014,0.00121,-0.00068,0.0598,-0.0411,9.8185
1771240808.8926883,1055205.1373,6125686.492,1424234.1189,0.502477,0.36966,0.564468,-0.540596,-0.0274,-0.0012,-0.0075,0.00147,0.0004,-0.00074,0.0623,0.0023,9.8233
1771240808.9426908,1055205.1371,6125686.492,1424234.1176,0.502452,0.36967,0.56447,-0.540611,-0.0245,0.0003,-0.008,0.00069,0.00335,0.00097,0.0782,0.0782,9.7919
1771240808.992828,1055205.1389,6125686.4891,1424234.1284,0.502443,0.369665,0.564501,-0.54059,-0.018,0.0036,-0.008,0.00014,-0.00161,0.00023,0.0255,0.0285,9.8119
1771240809.0429816,1055205.1389,6125686.4889,1424234.1275,0.502491,0.369753,0.564429,-0.540561,-0.0151,0.0018,-0.0081,0.00043,0.00097,5e-05,0.1101,-0.079,9.793
1771240809.0945501,1055205.1389,6125686.4889,1424234.1275,0.502491,0.369753,0.564429,-0.540561,-0.0151,0.0018,-0.0081,-0.00218,0.00085,-0.00068,0.0717,-0.0031,9.8225
1771240809.1461964,1055205.1389,6125686.4889,1424234.1275,0.502491,0.369753,0.564429,-0.540561,-0.0151,0.0018,-0.0081,-0.00053,0.00034,0.00013,0.0791,-0.0222,9.8011
1771240809.1922715,1055205.1389,6125686.4889,1424234.1275,0.502491,0.369753,0.564429,-0.540561,-0.0151,0.0018,-0.0081,-0.00054,0.00054,0.00025,0.068,-0.0109,9.816
1771240809.2413902,1055205.1389,6125686.4889,1424234.1275,0.502491,0.369753,0.564429,-0.540561,-0.0151,0.0018,-0.0081,-0.00093,-2e-05,4e-05,0.0818,-0.0478,9.7974
1771240809.2913876,1055205.1393,6125686.4888,1424234.1367,0.502463,0.369757,0.564475,-0.540535,-0.0085,0.0004,-0.0081,0.00074,0.0002,-0.00104,0.0538,0.0061,9.8138
1771240809.3418386,1055205.1393,6125686.4888,1424234.1367,0.502463,0.369757,0.564475,-0.540535,-0.0085,0.0004,-0.0081,-0.00148,0.00281,-6e-05,0.0526,-0.0074,9.7938
1771240809.3919313,1055205.1393,6125686.4888,1424234.1367,0.502463,0.369757,0.564475,-0.540535,-0.0085,0.0004,-0.0081,-0.00082,0.00048,0.00013,-0.0239,-0.0312,9.8175
1771240809.448282,1055205.1393,6125686.4888,1424234.1367,0.502463,0.369757,0.564475,-0.540535,-0.0085,0.0004,-0.0081,0.00049,-0.00919,-0.00046,0.1016,-0.0437,9.8035
1771240809.492322,1055205.1393,6125686.4888,1424234.1367,0.502463,0.369757,0.564475,-0.540535,-0.0085,0.0004,-0.0081,0.00052,-0.00461,-0.00029,0.3388,0.0454,9.8113
1771240809.543244,1055205.1393,6125686.4888,1424234.1367,0.502463,0.369757,0.564475,-0.540535,-0.0085,0.0004,-0.0081,0.00055,-0.00298,0.00055,0.41,-0.0448,9.8192
1771240809.5971298,1055205.1427,6125686.4909,1424234.1474,0.50242,0.369698,0.564556,-0.540532,0.0063,0.0026,-0.0045,0.00067,-0.00898,0.0006,0.471,-0.0359,9.8435
1771240809.64192,1055205.1427,6125686.4909,1424234.1474,0.50242,0.369698,0.564556,-0.540532,0.0063,0.0026,-0.0045,0.00263,-0.00432,-5e-05,0.4017,-0.0718,9.7606
1771240809.6925673,1055205.1427,6125686.4909,1424234.1474,0.50242,0.369698,0.564556,-0.540532,0.0063,0.0026,-0.0045,-0.00066,0.00821,0.00139,0.5533,0.0296,9.8493
1771240809.7425532,1055205.1427,6125686.4909,1424234.1474,0.50242,0.369698,0.564556,-0.540532,0.0063,0.0026,-0.0045,0.00061,-0.00164,0.00074,0.444,-0.0469,9.7625
1771240809.795975,1055205.1482,6125686.4849,1424234.1802,0.502623,0.369874,0.5643,-0.540489,0.1502,0.0047,-0.0002,-0.00214,0.00505,0.00111,0.456,0.0211,9.8474
1771240809.8428774,1055205.1492,6125686.4829,1424234.1879,0.502614,0.369842,0.564297,-0.540523,0.1677,0.0033,-0.0008,0.00022,0.00399,0.00078,0.3962,-0.081,9.7852
1771240809.8921978,1055205.1501,6125686.4808,1424234.1963,0.502555,0.369784,0.564315,-0.540599,0.1831,0.0022,-0.0002,0.00256,0.00339,0.00182,0.3682,0.0457,9.8163
1771240809.9417324,1055205.1511,6125686.4785,1424234.2055,0.502543,0.36975,0.564297,-0.540653,0.1946,0.0048,-0.0002,0.00127,-0.0054,0.00196,0.2099,-0.0036,9.778
1771240809.99261,1055205.1523,6125686.476,1424234.2152,0.502576,0.369701,0.564289,-0.540663,0.2098,0.0064,0.0007,-0.00177,0.0033,0.00226,0.3589,0.0046,9.8347
1771240810.0457106,1055205.1536,6125686.4734,1424234.2256,0.502561,0.369606,0.564329,-0.5407,0.2231,0.0084,0.0001,-0.0022,0.00439,0.00123,0.2449,0.0649,9.8325
1771240810.0991545,1055205.1551,6125686.4707,1424234.2366,0.502639,0.369597,0.564315,-0.540649,0.2318,0.01,0.0016,-0.00265,-0.00471,-0.00019,0.2622,-0.0105,9.8244
1771240810.1468568,1055205.1571,6125686.4639,1424234.2711,0.50273,0.369626,0.564274,-0.540587,0.2441,0.0055,0.0007,0.00163,-0.00134,0.00101,0.3729,-0.0249,9.7807
1771240810.201376,1055205.1584,6125686.4608,1424234.2833,0.502763,0.36962,0.564224,-0.540612,0.2581,0.0015,-0.001,0.00156,-0.0057,0.00313,0.2452,-0.0927,9.7892
1771240810.2424862,1055205.1596,6125686.4576,1424234.2961,0.502759,0.369577,0.564186,-0.540686,0.2735,-0.0012,-0.0003,0.00417,0.00194,0.0029,0.3148,-0.1129,9.7867
1771240810.2991493,1055205.1607,6125686.4543,1424234.3097,0.502663,0.369552,0.564181,-0.540797,0.2859,-0.0047,0.0009,0.00323,0.01163,0.00071,0.2986,-0.0402,9.7751
1771240810.343594,1055205.1609,6125686.4529,1424234.3176,0.50265,0.369533,0.564191,-0.540811,0.2892,0.0023,0.0039,-0.00104,-0.00376,-0.00011,0.2517,0.1453,9.8787
1771240810.3988547,1055205.1626,6125686.4494,1424234.3319,0.502751,0.369474,0.564193,-0.540756,0.3048,0.0105,0.0021,-0.00326,0.00188,0.00229,0.3466,0.0893,9.8005
1771240810.44706,1055205.1645,6125686.4456,1424234.347,0.502828,0.369447,0.564107,-0.540792,0.3211,0.0103,-0.0007,-0.00039,-0.00125,0.00418,0.3293,-0.0159,9.8103
1771240810.4974904,1055205.1665,6125686.4416,1424234.3628,0.502953,0.36945,0.564043,-0.54074,0.3369,0.0088,-0.0027,-0.00328,-0.0036,-0.00089,0.3785,-0.16,9.8073
1771240810.5438726,1055205.1681,6125686.4374,1424234.3794,0.502994,0.369522,0.564034,-0.540663,0.3525,-0.0024,0.0006,-7e-05,-0.00039,-0.00231,0.4147,-0.1231,9.9405
1771240810.5938601,1055205.1696,6125686.4331,1424234.3969,0.502916,0.369486,0.564093,-0.540698,0.3683,-0.0026,0.0017,0.00093,-0.0028,0.00197,0.2495,0.0666,9.7845
1771240810.6414666,1055205.1705,6125686.4299,1424234.408,0.502961,0.369388,0.564074,-0.540743,0.38,0.0011,0.0016,-0.00238,0.01114,0.00431,0.2912,0.0442,9.853
1771240810.6953006,1055205.1723,6125686.4255,1424234.4265,0.502894,0.369231,0.564116,-0.540869,0.3843,-0.0028,0.0031,0.00205,-0.00381,0.0013,0.0739,-0.0913,9.8517
1771240810.7418265,1055205.1738,6125686.421,1424234.4454,0.502776,0.369245,0.564151,-0.540933,0.3934,-0.0063,0.0013,0.00257,0.00758,-0.00109,0.1531,0.0854,9.7002
1771240810.7973042,1055205.1753,6125686.4163,1424234.4646,0.502684,0.369317,0.564196,-0.540923,0.402,-0.0067,0.0017,0.00275,-0.00198,-0.00412,0.2057,0.0467,9.8298
1771240810.8434365,1055205.1769,6125686.4116,1424234.4845,0.502593,0.369277,0.564261,-0.540966,0.4166,-0.0023,0.0034,-0.00066,0.01136,0.00033,0.3396,0.1024,9.8358
1771240810.899408,1055205.1788,6125686.4067,1424234.5049,0.502546,0.369168,0.564327,-0.541015,0.4284,-0.0022,0.004,-0.0021,0.0118,0.00141,0.2955,-0.061,9.849
1771240810.9443932,1055205.18,6125686.4021,1424234.5222,0.502523,0.369129,0.564364,-0.541025,0.429,-0.0019,0.0032,-0.00035,0.00181,-0.00142,0.2047,-0.0801,9.805
1771240811.0036619,1055205.1818,6125686.3971,1424234.5433,0.502482,0.369149,0.564421,-0.54099,0.4422,-0.009,0.0017,0.0023,0.00233,-0.00417,0.3793,-0.2126,9.8021
1771240811.044868,1055205.1833,6125686.3918,1424234.5651,0.502397,0.369248,0.564455,-0.540965,0.4556,-0.0097,0.0007,0.00236,-0.0045,-0.00466,0.2996,0.1024,9.8353
1771240811.0957086,1055205.185,6125686.3863,1424234.5875,0.502373,0.369303,0.564485,-0.540918,0.4702,-0.0059,0.0006,-0.0,0.00219,-0.00136,0.3125,0.0027,9.8499
1771240811.1425676,1055205.1867,6125686.3807,1424234.6107,0.502334,0.369301,0.564503,-0.540938,0.4845,-0.0087,0.0005,0.00085,0.00827,-0.00069,0.33,0.0988,9.7877
1771240811.197491,1055205.1866,6125686.3738,1424234.6287,0.502304,0.369363,0.564498,-0.540929,0.4935,-0.0126,-0.0011,0.00237,-0.00738,-0.00257,0.3291,-0.0413,9.8541
1771240811.2426355,1055205.1883,6125686.3678,1424234.653,0.502296,0.369514,0.564494,-0.540837,0.5107,-0.0133,-0.0013,0.00175,-0.00773,-0.00554,0.2814,-0.0972,9.77
1771240811.297927,1055205.1899,6125686.3616,1424234.6782,0.502208,0.369588,0.564569,-0.54079,0.5307,-0.0127,-0.0014,0.00074,0.0109,-0.00472,0.4818,0.0433,9.8317
1771240811.3472857,1055205.1919,6125686.3552,1424234.7042,0.502297,0.369724,0.564508,-0.540678,0.5416,-0.0084,-0.0018,-0.00138,-0.00981,-0.00214,0.318,-0.1037,9.8194
1771240811.3919659,1055205.1939,6125686.3486,1424234.7308,0.502326,0.369809,0.564479,-0.540623,0.5613,-0.0127,-0.0034,0.00176,-0.00271,-0.00121,0.4191,-0.1839,9.7925
1771240811.4437544,1055205.1933,6125686.3394,1424234.7573,0.502304,0.369942,0.564479,-0.540552,0.5766,-0.0148,-0.0069,0.00285,-0.00024,-0.00531,0.4967,-0.0668,9.7957
1771240811.4927917,1055205.1949,6125686.3323,1424234.7857,0.502248,0.370129,0.564442,-0.540514,0.5919,-0.0234,-0.0064,0.00528,-0.00657,-0.00427,0.2863,-0.0584,9.8834
1771240811.5443041,1055205.1965,6125686.325,1424234.8147,0.502145,0.37021,0.564497,-0.540498,0.6049,-0.0204,-0.002,0.00247,-0.00097,-0.00247,0.2286,-0.0702,9.9869
1771240811.5964532,1055205.1981,6125686.3178,1424234.8444,0.502045,0.370323,0.5645,-0.54051,0.621,-0.0217,-0.0024,0.00601,0.00685,-0.00315,0.398,0.0447,9.7903
1771240811.6457567,1055205.1998,6125686.3102,1424234.875,0.501834,0.370346,0.564572,-0.540615,0.6414,-0.0205,-0.0045,0.00455,0.01114,-0.00253,0.3788,0.2102,9.7952
1771240811.697219,1055205.2016,6125686.3025,1424234.9063,0.501868,0.370557,0.564513,-0.540501,0.652,-0.02,-0.0036,0.00258,-0.00412,-0.00694,0.3517,-0.0767,9.7758
1771240811.7437594,1055205.2025,6125686.293,1424234.9419,0.501834,0.370773,0.56452,-0.540377,0.6646,-0.0203,-0.0058,0.00422,-0.00973,-0.00692,0.3697,-0.0114,9.8039
1771240811.7923915,1055205.2045,6125686.2848,1424234.9745,0.501806,0.370919,0.564507,-0.540316,0.6812,-0.0153,-0.0043,0.00239,-0.01224,-0.00289,0.2958,0.0577,9.9201
1771240811.8417492,1055205.2068,6125686.2765,1424235.0079,0.50179,0.370961,0.564552,-0.540256,0.6997,-0.0155,-0.005,6e-05,0.00338,-0.00164,0.2768,-0.1115,9.6951
1771240811.8972628,1055205.209,6125686.268,1424235.0421,0.501774,0.371039,0.564571,-0.540198,0.7125,-0.0188,-0.0045,1e-05,-0.00093,-0.00418,0.2301,-0.0628,9.8292
1771240811.9443076,1055205.2112,6125686.2594,1424235.077,0.501756,0.371168,0.564594,-0.540101,0.7318,-0.0159,-0.0047,0.00023,0.01418,-0.0058,0.5916,0.1083,9.7592
1771240811.991818,1055205.2126,6125686.2496,1424235.1186,0.501903,0.371406,0.564536,-0.539862,0.7351,-0.0121,-0.0054,-0.00163,-0.01266,-0.00709,0.3813,0.0579,9.7137
1771240812.0416389,1055205.2153,6125686.2406,1424235.1546,0.50198,0.371563,0.564565,-0.539651,0.749,-0.0085,-0.0054,-0.00402,-0.01597,-0.00944,0.3929,-0.0263,9.8392
1771240812.0929458,1055205.2181,6125686.2315,1424235.1912,0.502072,0.371678,0.564632,-0.539417,0.7629,-0.0092,-0.0048,-0.00622,-0.00761,-0.0058,0.2752,-0.0732,9.7961
1771240812.1423368,1055205.221,6125686.2223,1424235.2284,0.502208,0.371742,0.564666,-0.53921,0.7761,-0.0097,-0.0048,-0.00661,-0.00379,-0.00487,0.3575,-0.1457,9.8517
1771240812.1935048,1055205.2236,6125686.213,1424235.2663,0.50229,0.371829,0.564665,-0.539074,0.7912,-0.017,-0.0031,-0.00051,0.0022,-0.00541,0.4262,-0.222,9.8879
1771240812.2438252,1055205.2261,6125686.2035,1424235.305,0.502219,0.371912,0.564746,-0.538998,0.803,-0.0142,-0.0052,0.00118,-0.00281,-0.0083,0.3232,0.1308,9.8331
1771240812.2923715,1055205.229,6125686.1939,1424235.3441,0.50243,0.372185,0.564691,-0.538671,0.8174,-0.0065,-0.0066,-0.00785,-0.00679,-0.01153,0.425,0.1176,9.7664
1771240812.342319,1055205.2359,6125686.1842,1424235.3917,0.502402,0.372216,0.564863,-0.538496,0.833,-0.0122,-0.0059,-0.00236,-0.02522,-0.00531,-0.0775,0.0731,9.8118
1771240812.3935037,1055205.239,6125686.1741,1424235.4323,0.502516,0.372333,0.564869,-0.538302,0.8454,-0.0102,-0.005,-0.00512,-0.00632,-0.00162,0.0194,-0.2706,9.8818
1771240812.4450612,1055205.242,6125686.1641,1424235.4735,0.502651,0.372426,0.564839,-0.538143,0.8546,-0.0166,-0.0028,-0.00253,-0.00409,-0.00431,0.1944,-0.2618,9.8643
1771240812.491576,1055205.2445,6125686.1541,1424235.5154,0.502608,0.372534,0.564878,-0.538066,0.8717,-0.0269,0.0004,0.00391,0.01106,-0.00473,0.5186,-0.1261,9.9045
1771240812.546055,1055205.2469,6125686.1442,1424235.5581,0.502503,0.372686,0.564926,-0.53801,0.8872,-0.0251,0.0016,0.0044,0.0165,-0.0076,0.6279,0.0716,9.7296
1771240812.592616,1055205.2555,6125686.1344,1424235.6094,0.502411,0.372838,0.564962,-0.537954,0.8992,-0.0199,0.0021,0.00518,0.01918,-0.00649,0.5737,0.0903,9.7439
1771240812.6525178,1055205.2583,6125686.1241,1424235.6533,0.502275,0.372938,0.565023,-0.537945,0.9095,-0.0171,-0.0002,0.00347,0.00088,-0.00618,0.3447,0.2711,9.6114
1771240812.6929665,1055205.2613,6125686.1135,1424235.6976,0.502283,0.373143,0.565017,-0.537803,0.9178,-0.0144,-0.0025,0.0012,-0.01316,-0.00723,0.3358,0.0702,9.7796
1771240812.7429185,1055205.2644,6125686.1027,1424235.7426,0.502287,0.373292,0.565049,-0.537662,0.9338,-0.0122,-0.0051,0.00167,-0.01294,-0.00655,0.2561,0.1853,9.7239
1771240812.7931435,1055205.2675,6125686.0916,1424235.7882,0.502304,0.373484,0.565052,-0.537509,0.9516,-0.0148,-0.0064,0.00107,0.00032,-0.00688,0.4494,0.148,9.8292
1771240812.8475308,1055205.2735,6125686.0801,1424235.8345,0.502223,0.37362,0.565099,-0.537441,0.9708,-0.0174,-0.0053,0.00314,0.01037,-0.00605,0.5246,-0.0349,9.8716
1771240812.8931012,1055205.2767,6125686.0686,1424235.8818,0.502035,0.373674,0.565236,-0.537435,0.9829,-0.0196,-0.0045,0.00505,0.00604,-0.00529,0.3126,-0.1759,9.839
1771240812.952578,1055205.2796,6125686.0571,1424235.9298,0.501919,0.373853,0.565269,-0.537384,0.9974,-0.0219,-0.0058,0.00411,0.00993,-0.00752,0.3523,0.1147,9.6513
1771240812.9921205,1055205.2827,6125686.0453,1424235.9785,0.501839,0.373985,0.565308,-0.537327,1.0096,-0.0232,-0.0068,0.00094,-0.00176,-0.0064,0.4369,-0.1338,9.8253
1771240813.050228,1055205.2856,6125686.0332,1424236.0279,0.501663,0.374115,0.565404,-0.537298,1.0288,-0.0264,-0.0087,0.00509,0.0156,-0.00651,0.4936,-0.398,9.7268
1771240813.1130526,1055205.2908,6125686.0208,1424236.0752,0.501493,0.374352,0.565446,-0.537249,1.0345,-0.0187,-0.0098,0.00744,0.00637,-0.00962,0.5066,0.0644,9.9427
1771240813.1523125,1055205.294,6125686.0085,1424236.1256,0.501423,0.374616,0.565397,-0.537181,1.0448,-0.0207,-0.0105,0.00691,-0.00049,-0.00778,0.3908,-0.1134,9.7116
1771240813.197313,1055205.2969,6125685.9959,1424236.1766,0.501197,0.374806,0.56543,-0.537225,1.0611,-0.0231,-0.0125,0.01188,0.00663,-0.00673,0.5488,0.0015,9.657
1771240813.2445197,1055205.2999,6125685.9832,1424236.2282,0.500978,0.374959,0.565476,-0.537274,1.0663,-0.0177,-0.0097,0.00679,-0.0062,-0.01039,0.066,0.2683,9.9129
1771240813.2917297,1055205.303,6125685.9704,1424236.2803,0.500903,0.375247,0.565463,-0.537158,1.0822,-0.0198,-0.009,0.00669,-0.00842,-0.0103,0.3379,0.3439,9.8262
1771240813.3416831,1055205.3049,6125685.9554,1424236.3322,0.500641,0.375513,0.565514,-0.537162,1.0974,-0.0251,-0.0134,0.01155,-0.0143,-0.00796,0.1454,0.5186,9.635
1771240813.39325,1055205.3081,6125685.9421,1424236.3859,0.500399,0.375579,0.56567,-0.537176,1.1114,-0.0102,-0.0121,0.00535,-0.00776,-0.0075,0.0052,0.4871,9.7116
1771240813.4439423,1055205.3114,6125685.9288,1424236.4399,0.500364,0.375832,0.565601,-0.537106,1.1176,-0.0163,-0.0105,0.00912,-0.03539,-0.00493,0.2362,0.9112,9.7736
1771240813.4956882,1055205.3148,6125685.9153,1424236.4947,0.500116,0.375904,0.56575,-0.537128,1.1401,-0.0248,-0.0113,0.00619,0.01137,-0.00248,0.1818,0.0216,9.7425
1771240813.5442753,1055205.318,6125685.9016,1424236.5504,0.499965,0.376134,0.565803,-0.537053,1.1607,-0.024,-0.0119,0.00384,0.03948,-0.01034,0.534,0.1245,9.8041
1771240813.5977132,1055205.3214,6125685.8877,1424236.6068,0.499809,0.376249,0.565916,-0.536998,1.1721,-0.0199,-0.011,-0.00026,0.00489,-0.00915,0.4308,0.139,9.8842
1771240813.6418316,1055205.3236,6125685.871,1424236.6605,0.499662,0.3762,0.566146,-0.536926,1.1792,-0.0042,-0.0162,-0.00778,0.01397,-0.00744,0.4252,-0.0682,9.7716
1771240813.6938832,1055205.3281,6125685.8564,1424236.7177,0.499627,0.376005,0.566445,-0.53678,1.1906,0.0071,-0.0187,-0.01388,0.01666,-0.0077,0.6256,0.1074,9.635
1771240813.74656,1055205.3329,6125685.8416,1424236.7754,0.499631,0.375812,0.566736,-0.536605,1.1967,0.0059,-0.0187,-0.01104,-0.00243,-0.0077,0.305,-0.1308,9.6239
1771240813.7972436,1055205.3376,6125685.8266,1424236.8336,0.499505,0.375638,0.567105,-0.536454,1.2115,0.0067,-0.0188,-0.01031,0.00388,-0.00844,0.064,-0.0353,9.6805
1771240813.8413196,1055205.3424,6125685.8114,1424236.8924,0.499449,0.375456,0.567468,-0.536249,1.2218,0.011,-0.0173,-0.01269,-0.00373,-0.00809,-0.0866,0.0186,9.9376
1771240813.8919394,1055205.3473,6125685.7962,1424236.9516,0.499667,0.375345,0.567652,-0.535929,1.2349,0.0149,-0.0172,-0.0158,-4e-05,-0.00527,0.2948,-0.0043,9.8702
1771240813.942527,1055205.3523,6125685.7808,1424237.0115,0.49972,0.375107,0.56794,-0.535741,1.2479,0.0095,-0.015,-0.01173,0.00967,-0.00558,0.2684,0.017,9.8536
1771240813.9923704,1055205.3515,6125685.7648,1424237.0703,0.499713,0.375005,0.568153,-0.535594,1.2521,-0.0018,-0.0059,-0.00576,0.00578,-0.00743,0.4416,-0.103,10.0562
1771240814.047678,1055205.3558,6125685.75,1424237.1312,0.499761,0.375138,0.568241,-0.535362,1.2629,-0.0092,-0.0019,-0.00046,-0.01579,-0.00889,0.3081,-0.1542,9.8434
1771240814.0931473,1055205.3596,6125685.735,1424237.1931,0.499691,0.375293,0.568335,-0.535219,1.2854,-0.0157,-0.009,0.00445,-0.01039,-0.0077,0.3149,0.0163,9.5767
1771240814.1432538,1055205.3632,6125685.7195,1424237.2559,0.499341,0.375238,0.568633,-0.535267,1.3051,-0.0202,-0.0129,0.00347,0.01747,-0.01,0.3858,0.0635,9.6902
1771240814.191636,1055205.36,6125685.7061,1424237.3064,0.49913,0.375328,0.568847,-0.535174,1.305,-0.0255,-0.0157,-0.00049,0.00339,-0.01065,0.2718,0.2889,9.6712
1771240814.2413087,1055205.363,6125685.6903,1424237.3699,0.498916,0.375435,0.569069,-0.535062,1.3121,-0.0333,-0.0129,0.00286,0.0003,-0.01441,0.1126,0.1216,10.0192
1771240814.2959251,1055205.3658,6125685.6747,1424237.4337,0.498753,0.375714,0.569204,-0.534875,1.3171,-0.0393,-0.0094,0.00537,-0.00606,-0.01484,0.2847,-0.3413,9.5521
1771240814.3419147,1055205.3685,6125685.659,1424237.498,0.498446,0.375916,0.569484,-0.534721,1.3292,-0.0381,-0.0084,0.00561,-0.01866,-0.01493,-0.0107,-0.5411,9.7258
1771240814.3932467,1055205.371,6125685.6432,1424237.5629,0.498184,0.376198,0.569683,-0.534555,1.3442,-0.0418,-0.01,0.01069,0.0024,-0.01579,0.1975,-0.4969,9.7333
1771240814.4415874,1055205.3725,6125685.6288,1424237.6259,0.497629,0.376285,0.57009,-0.534576,1.3438,-0.0419,0.0002,0.00788,0.01122,-0.01841,-0.12,0.1514,9.7672
1771240814.4929967,1055205.375,6125685.6134,1424237.6913,0.497536,0.376678,0.570169,-0.534302,1.3452,-0.0382,-0.0022,0.00767,-0.03731,-0.0148,0.0783,-0.1727,9.5774
1771240814.545391,1055205.3769,6125685.5973,1424237.7573,0.497079,0.37686,0.570439,-0.534311,1.3715,-0.0508,-0.019,0.01448,0.03188,-0.01647,0.4871,-0.0206,9.4052
1771240814.5965216,1055205.3785,6125685.5806,1424237.8239,0.496598,0.377054,0.570712,-0.53433,1.3673,-0.0488,-0.0151,0.00782,-0.01326,-0.01969,-0.3947,0.2553,10.019
1771240814.6452215,1055205.3804,6125685.5644,1424237.8902,0.496416,0.37745,0.570846,-0.534076,1.3663,-0.0496,-0.0087,0.00741,0.00123,-0.02002,0.1717,-0.2358,9.8271
1771240814.6977189,1055205.3821,6125685.5482,1424237.9571,0.496125,0.377829,0.571049,-0.533862,1.3844,-0.0478,-0.0095,0.00808,-0.01192,-0.02008,0.3634,0.0919,9.9551
1771240814.7478216,1055205.3824,6125685.5365,1424238.0189,0.495754,0.378057,0.571352,-0.53372,1.4034,-0.041,-0.0048,0.00498,-0.00515,-0.01727,-0.1133,0.239,9.8117
1771240814.797724,1055205.3846,6125685.5201,1424238.0874,0.495481,0.37826,0.571649,-0.533513,1.4112,-0.0384,-0.0007,0.00443,0.00687,-0.01845,0.0844,-0.1085,10.0817
1771240814.843874,1055205.3867,6125685.5037,1424238.1561,0.495241,0.378511,0.571892,-0.533297,1.4173,-0.0384,-0.0037,0.00319,0.01737,-0.0208,0.2837,0.2797,9.6357
1771240814.896429,1055205.3889,6125685.4871,1424238.2251,0.495036,0.378697,0.572167,-0.53306,1.4219,-0.0338,-0.0034,0.00151,-0.01756,-0.01647,-0.0301,0.333,9.8534
1771240814.9499629,1055205.391,6125685.4703,1424238.2947,0.494792,0.378907,0.572485,-0.532795,1.4411,-0.0392,-0.0064,0.00189,0.02398,-0.02065,0.275,0.2883,9.9144
