Topic:,/fixposition/poiimu
time,ang_vel_x,ang_vel_y,ang_vel_z,lin_acc_x,lin_acc_y,lin_acc_z
1771240778.4436543,-0.00085,0.00434,0.00061,0.0048,-0.089,9.8083
1771240778.4924994,0.00032,0.00127,0.00025,0.0176,-0.0833,9.8076
1771240778.5503845,0.00192,-0.00264,-0.0001,-0.0069,-0.0951,9.7963
1771240778.5964136,-0.00062,-4e-05,-0.00047,-0.0052,-0.1043,9.8028
1771240778.6462698,-0.00043,0.00153,-0.00036,0.011,-0.1025,9.8073
1771240778.6925936,0.00071,0.00039,-7e-05,0.009,-0.0895,9.799
1771240778.7479277,-0.00188,0.00328,0.0002,-0.0034,-0.0828,9.8106
1771240778.793208,0.00071,-0.00072,-3e-05,-0.0004,-0.0863,9.8102
1771240778.8504558,0.00181,-0.00187,1e-05,0.0005,-0.0864,9.8041
1771240778.893135,0.00037,0.0019,0.00021,0.0118,-0.0974,9.8021
1771240778.9552372,-0.00116,0.002,-0.00028,-0.0001,-0.089,9.8108
1771240778.996469,0.00084,-0.00493,-0.00056,0.0004,-0.077,9.7986
1771240779.0450714,0.0006,-0.00124,6e-05,0.0032,-0.0969,9.8156
1771240779.0937061,0.00042,-0.00053,-0.00048,-0.0017,-0.0943,9.8116
1771240779.143192,-0.00039,-0.00061,-0.00013,0.0024,-0.1093,9.8059
1771240779.1928582,0.00081,-0.00361,-0.00017,0.0047,-0.0832,9.8045
1771240779.2425833,2e-05,-0.0015,-0.0003,0.01,-0.0958,9.8181
1771240779.2934213,-0.00052,-0.00334,-0.00056,0.0073,-0.0909,9.8113
1771240779.3420582,0.00071,-0.0016,-0.00058,-0.0028,-0.0958,9.8109
1771240779.3926406,-0.00013,0.0006,0.00025,0.0102,-0.0923,9.8012
1771240779.4472222,-0.00016,-0.00069,0.00047,-0.0004,-0.0965,9.8095
1771240779.4967947,0.00075,-0.00185,-9e-05,0.0054,-0.0916,9.8067
1771240779.5426736,0.00079,-0.00022,-0.0004,0.0076,-0.0996,9.8101
1771240779.5935445,0.00037,-0.00109,0.00016,-0.0112,-0.0955,9.806
1771240779.642797,0.00069,0.00011,0.00039,-0.001,-0.0977,9.8038
1771240779.720865,-0.00056,0.0004,-0.0004,0.0129,-0.0828,9.8162
1771240779.744095,0.00013,0.0027,-0.0002,-0.0004,-0.093,9.8007
1771240779.7960129,0.0016,-0.00428,-0.00074,-0.0026,-0.0944,9.8226
1771240779.8422525,0.00089,-0.00052,0.00015,0.0035,-0.1021,9.8127
1771240779.8932414,-0.0012,0.0018,0.0001,0.0045,-0.0968,9.7993
1771240779.9447534,4e-05,0.00162,0.0,0.0013,-0.0922,9.8049
1771240779.9922004,0.00018,-0.0004,-0.00066,-0.0007,-0.0893,9.8176
1771240780.042789,0.00073,0.00061,-0.00012,-0.0006,-0.0756,9.8112
1771240780.0929172,0.00119,-0.00359,-0.00062,0.004,-0.1055,9.8058
1771240780.1422262,-0.00044,-0.00046,-0.00022,0.0033,-0.1069,9.81
1771240780.1924114,0.00129,-0.00145,-0.00015,0.0054,-0.0972,9.805
1771240780.2423618,0.00084,-0.00141,-0.00052,-0.0003,-0.1043,9.8103
1771240780.291901,-0.00013,-0.00076,-0.0005,0.0034,-0.0788,9.8037
1771240780.3425984,-0.00243,0.0036,0.0003,0.0158,-0.1039,9.8118
1771240780.3955023,0.00048,-0.00087,3e-05,0.0039,-0.119,9.8088
1771240780.4421096,-0.00033,-9e-05,-0.00031,0.0119,-0.0997,9.8118
1771240780.5000927,0.00113,0.0002,0.00017,0.01,-0.0969,9.7974
1771240780.5475597,-0.00087,0.00238,0.00025,-0.0023,-0.078,9.8117
1771240780.6038597,0.00078,0.00058,0.0002,-0.0128,-0.0891,9.8078
1771240780.641972,0.0021,-0.00343,-0.00053,-0.0019,-0.095,9.8057
1771240780.6999373,0.00063,-0.00259,-0.00058,0.0052,-0.0797,9.8271
1771240780.7429342,0.00078,-0.00154,-0.00022,0.0247,-0.1086,9.8079
1771240780.7976122,-0.00021,0.00206,-3e-05,0.0046,-0.0903,9.7854
1771240780.8439353,0.00448,-0.00244,0.00058,-0.0094,-0.1025,9.7711
1771240780.903693,-0.00141,0.00773,0.0008,-0.0084,-0.0998,9.8117
1771240780.944608,6e-05,-0.00146,-0.00017,0.005,-0.0649,9.8311
1771240780.9995825,0.0003,-0.00152,-0.00013,-0.0014,-0.0996,9.8167
1771240781.0475132,0.00095,0.00133,3e-05,0.0484,-0.0745,9.8001
1771240781.1092014,-0.00018,-0.00015,-0.00048,-0.0155,-0.0993,9.8249
1771240781.141844,0.0005,-0.00426,-0.00106,-0.0082,-0.104,9.8121
1771240781.192832,0.00045,-0.00395,-0.00069,-0.0004,-0.1159,9.8156
1771240781.2418172,0.00085,0.00193,-0.00013,0.0255,-0.0876,9.8078
1771240781.2938232,0.00078,-0.00084,0.00013,-0.0085,-0.073,9.8099
1771240781.3432372,-2e-05,-0.00023,-0.00108,-0.0018,-0.106,9.816
1771240781.3924205,-0.0004,0.00105,-3e-05,-0.0214,-0.0543,9.8244
1771240781.4426823,-0.00267,0.00472,0.00106,0.0037,-0.0895,9.8072
1771240781.5023823,0.00117,-4e-05,0.00049,0.025,-0.1569,9.7598
1771240781.5426056,-9e-05,0.00031,1e-05,-0.037,0.0096,9.8298
1771240781.5923793,-0.00186,0.00079,0.00056,0.0039,-0.1029,9.8295
1771240781.6436505,0.00189,0.00271,-0.00012,-0.0011,-0.1116,9.7854
1771240781.6939628,-2e-05,-0.00208,-0.00021,-0.0027,-0.056,9.7907
1771240781.742483,-0.00012,0.00077,0.0001,0.0611,-0.1124,9.8167
1771240781.79916,0.00109,-0.00029,-0.00011,-0.0081,-0.0738,9.8383
1771240781.846933,-0.00086,0.001,0.00033,-0.0144,-0.111,9.7922
1771240781.8956473,0.00042,-0.00032,-0.00082,-0.0035,-0.0973,9.7894
1771240781.9425566,-0.00082,-0.00091,0.00095,0.0093,-0.0811,9.8161
1771240781.9926307,0.00113,0.00123,-0.0004,0.0223,-0.1125,9.8219
1771240782.0438333,6e-05,0.00086,0.0003,-0.0276,-0.0628,9.8059
1771240782.0917964,-0.00135,0.00211,-7e-05,-0.0013,-0.0893,9.7899
1771240782.1432893,0.00061,-0.00057,-0.00017,0.0207,-0.0924,9.811
1771240782.198749,0.00237,-0.00499,-0.00033,0.0151,-0.1062,9.8104
1771240782.2433705,0.0017,0.0033,0.00051,-0.0054,-0.0833,9.8046
1771240782.293123,-0.00074,-0.00106,-0.00049,-0.0029,-0.0962,9.8072
1771240782.3426886,-0.00169,0.00189,-0.00049,0.0065,-0.0779,9.8115
1771240782.392085,-0.00125,0.00173,0.00058,0.0048,-0.0954,9.8101
1771240782.442348,0.00162,-0.00237,-0.00032,0.0013,-0.1107,9.8068
1771240782.497369,0.0012,-0.00177,-1e-05,-0.0033,-0.0779,9.8163
1771240782.5448046,0.00096,0.00071,0.00015,0.0114,-0.1134,9.811
1771240782.5926833,0.00058,0.00089,8e-05,0.0004,-0.0752,9.795
1771240782.647341,0.00048,-0.00115,-0.00014,-0.0015,-0.1046,9.8092
1771240782.6935377,4e-05,0.00082,0.00028,0.0018,-0.1044,9.8129
1771240782.7483468,-0.00133,0.00377,0.0005,0.0094,-0.0852,9.8057
1771240782.7924452,0.00095,-0.00276,-0.00074,0.0031,-0.0973,9.8065
1771240782.8532825,-0.00017,-0.00076,2e-05,-0.0066,-0.0784,9.8069
1771240782.8950539,0.00144,-0.00223,6e-05,0.003,-0.0926,9.8166
1771240782.9495437,-0.00012,0.00031,-6e-05,0.0057,-0.095,9.8099
1771240782.9923456,0.00045,0.00125,0.00021,-0.0006,-0.1052,9.8022
1771240783.0488803,-0.00018,0.00014,4e-05,-0.0042,-0.0888,9.8109
1771240783.0920289,0.0002,0.00044,0.00039,-0.0005,-0.0934,9.8026
1771240783.1501245,-0.00068,0.00292,3e-05,-0.0002,-0.0945,9.8198
1771240783.193071,-0.0002,0.00023,-0.00027,0.0064,-0.0999,9.8036
1771240783.2604232,0.00126,-0.00206,9e-05,-0.0039,-0.0882,9.801
1771240783.292057,0.00212,-0.00319,9e-05,0.0065,-0.1003,9.8033
1771240783.342446,-0.00073,0.00046,-0.00059,0.0095,-0.0828,9.8071
1771240783.3944147,-1e-05,9e-05,0.00034,-0.0046,-0.0859,9.8165
1771240783.4447153,0.00048,-0.00031,-0.00022,0.0098,-0.1036,9.7972
1771240783.4937816,0.00023,0.00129,0.00048,-0.0076,-0.0924,9.8053
1771240783.551258,-0.00094,0.00231,-0.00054,0.0085,-0.0956,9.8046
1771240783.5925357,0.00065,-0.00126,-0.00012,-0.0093,-0.0921,9.8097
1771240783.6426446,0.00265,-0.00143,0.00012,-0.0008,-0.0767,9.8228
1771240783.695024,-0.00046,-0.00219,0.00022,0.0215,-0.1072,9.8005
1771240783.7466178,0.00118,-0.00256,-0.00039,0.0021,-0.0762,9.8113
1771240783.7918718,0.00122,-0.00288,-0.00015,0.0103,-0.0928,9.8112
1771240783.8485346,0.0014,-0.0036,-0.00033,0.0054,-0.0844,9.8097
1771240783.896318,-0.00033,8e-05,0.00028,-0.0147,-0.0624,9.8203
1771240783.9462001,-0.00087,0.00265,-9e-05,-0.0069,-0.1042,9.8025
1771240783.9927876,-0.0006,0.00332,0.00041,-0.0262,-0.0891,9.8157
1771240784.0419438,0.00092,-0.00178,-0.00016,0.0206,-0.0844,9.8165
1771240784.0952792,0.00164,-0.00164,-5e-05,0.0292,-0.0863,9.8103
1771240784.142618,-0.00162,-0.00357,0.0003,-0.0958,-0.0838,9.7803
1771240784.1921594,-0.00011,0.001,0.00027,-0.0281,-0.0973,9.7982
1771240784.2430794,-0.00042,-0.0006,0.00036,-0.0101,-0.0927,9.8076
1771240784.2934837,-0.00064,0.00272,5e-05,0.0255,-0.1016,9.812
1771240784.3443332,-0.00014,0.00164,-0.0001,0.0254,-0.0632,9.8341
1771240784.3920975,0.00044,-0.00282,-0.00027,-0.024,-0.0958,9.7832
1771240784.4432926,-0.00028,-0.00339,-0.00103,0.0068,-0.1036,9.8222
1771240784.4923444,0.00057,-0.0017,-0.0003,0.0161,-0.1215,9.8063
1771240784.5445232,-0.0004,0.00151,0.00033,0.0128,-0.0981,9.8067
1771240784.5962102,0.00175,-0.0044,-0.00032,-0.002,-0.0756,9.8087
1771240784.6452274,-0.00142,0.00187,0.00015,0.0202,-0.0695,9.7969
1771240784.7004237,-0.00184,-0.00023,-0.00029,0.0145,-0.0703,9.8123
1771240784.7420266,0.00019,-0.0012,2e-05,-0.031,-0.1017,9.8305
1771240784.7974124,-0.00042,-0.00012,0.00017,-0.0089,-0.0996,9.7937
1771240784.842102,-0.00034,0.00071,0.00029,0.0311,-0.086,9.8183
1771240784.8990119,-0.00034,0.00297,7e-05,0.0099,-0.0836,9.7868
1771240784.942827,-0.00032,-0.0003,0.00018,0.0204,-0.0848,9.8091
1771240784.995761,-0.00147,-0.00207,0.00017,-0.0513,-0.0724,9.8029
1771240785.0425348,0.00013,0.00162,0.00028,0.0576,-0.124,9.7893
1771240785.095152,0.00104,0.0011,-0.00062,0.0275,-0.082,9.7486
1771240785.1426022,-0.00049,-0.00512,0.00068,0.0613,-0.0436,9.788
1771240785.201426,-0.0033,0.00824,0.0002,0.0139,-0.1279,9.8014
1771240785.2467823,0.00033,-5e-05,-0.00071,0.0557,-0.1286,9.8723
1771240785.302712,0.0001,-0.00279,-0.00026,0.0621,-0.102,9.7629
1771240785.3449013,0.00022,0.00127,-0.0009,0.06,-0.076,9.8315
1771240785.4033823,-2e-05,-0.00144,-0.00071,0.0482,-0.1101,9.8203
1771240785.4457867,-0.00037,-0.00049,-0.00107,0.02,-0.0765,9.778
1771240785.49217,-0.00023,0.00265,-0.0003,0.035,-0.0946,9.8342
1771240785.5475342,0.00053,-0.00432,-0.00109,-0.0143,-0.0803,9.7987
1771240785.5928516,3e-05,-0.00186,-0.00129,0.0264,-0.0904,9.8018
1771240785.6421227,0.00118,-0.00208,-0.00103,-0.0117,-0.1047,9.8045
1771240785.6951706,-0.00012,0.00119,-0.0005,0.024,-0.0777,9.8268
1771240785.7426777,-0.00186,0.00219,-0.00129,-0.0137,-0.0952,9.7955
1771240785.7927864,-0.00122,0.00339,-0.00089,0.0263,-0.0795,9.8142
1771240785.8458145,0.00077,-0.00331,-0.00084,-0.0537,-0.0914,9.8096
1771240785.8926544,-0.00071,0.00398,-0.0008,-0.0134,-0.0734,9.8041
1771240785.9455597,0.00045,-0.00906,-0.00096,-0.495,0.0522,9.7282
1771240785.9958525,-1e-05,0.01555,0.00018,0.2241,0.0147,9.8243
1771240786.042945,-0.00272,0.02063,0.00123,0.1745,-0.1355,9.6736
1771240786.0956416,0.00038,-0.00576,-5e-05,-0.1991,-0.0288,9.9487
1771240786.1462476,0.0008,-0.00642,0.00039,-0.2747,-0.1638,9.7843
1771240786.194982,9e-05,0.00075,0.00017,-0.0054,-0.0972,9.849
1771240786.2457602,-0.00066,0.00222,0.00082,-0.0745,-0.0534,9.8049
1771240786.2924836,0.00267,-0.00625,-0.00074,0.0418,-0.1059,9.7961
1771240786.3472292,3e-05,-0.00121,0.00077,-0.0122,-0.0855,9.8197
1771240786.39435,-0.00018,-0.00118,0.00054,-0.0553,-0.0917,9.7878
1771240786.446497,-0.00081,-0.00095,0.00077,-0.0041,-0.1091,9.8069
1771240786.4948113,-0.00021,-0.00141,0.00045,-0.0063,-0.0978,9.8026
1771240786.5433013,-3e-05,-0.00101,0.00102,-0.0179,-0.0869,9.8105
1771240786.6042914,-0.0002,-0.00034,0.0005,0.0008,-0.0988,9.7877
1771240786.6478791,-0.00036,0.0046,0.00108,0.065,-0.1191,9.7777
1771240786.6937077,0.00124,0.00061,0.00056,0.053,-0.0606,9.7964
1771240786.7457314,-0.00084,0.00113,0.001,0.1132,-0.0952,9.8512
1771240786.7936974,-0.00051,0.00216,0.00105,0.0105,-0.0943,9.8784
1771240786.8448374,0.00267,-0.00613,0.00064,-0.0253,-0.1499,9.7841
1771240786.8938534,1e-05,-0.00174,0.00014,0.0856,-0.157,9.8364
1771240786.95317,-0.00139,0.00105,0.00126,0.0345,-0.1384,9.8227
1771240786.9970362,-0.00104,-0.00149,0.00093,0.0423,-0.1771,9.8279
1771240787.0436287,-0.00184,0.00301,0.0003,0.0736,-0.1743,9.725
1771240787.0929468,-0.0019,0.00225,0.00018,0.0852,-0.1316,9.8022
1771240787.1505523,-0.00143,-0.00305,0.00018,0.0716,-0.0272,9.7689
1771240787.2013023,0.00118,-0.0001,0.0006,0.1173,-0.125,9.774
1771240787.2581272,0.00033,0.00029,0.00083,0.0062,-0.1229,9.7019
1771240787.2920032,0.00118,-0.00142,-0.00142,-0.047,-0.0588,9.8458
1771240787.348592,0.00223,-0.0072,-0.00093,-0.0894,-0.0483,9.8202
1771240787.3958857,-0.00318,0.00207,-0.00048,0.0065,-0.0729,9.8499
1771240787.4703038,0.00015,0.00241,-0.00062,-0.0386,-0.0996,9.8475
1771240787.505295,0.00042,-0.00106,-0.0001,-0.0297,-0.1569,9.8185
1771240787.5555062,0.00035,0.00415,0.00046,0.0339,-0.0659,9.7899
1771240787.595657,0.00125,-0.00182,0.00011,0.0223,-0.0765,9.8201
1771240787.6471214,0.00112,-0.00032,-0.00046,0.0066,-0.07,9.8091
1771240787.6927578,0.00108,-0.00277,-0.00018,0.0029,-0.0533,9.8589
1771240787.7589045,0.00043,-0.00592,-0.00023,0.0149,-0.1422,9.7818
1771240787.796996,-0.00018,0.00403,0.00016,-0.0006,-0.1112,9.7896
1771240787.862949,-0.00112,0.0001,0.00021,0.0065,-0.0584,9.8141
1771240787.9125695,-0.00127,0.00341,0.00053,0.0076,-0.0951,9.8183
1771240787.9429867,-0.00107,0.00127,0.00012,-0.0169,-0.0677,9.8089
1771240787.998649,0.00058,-0.00146,-0.0007,0.0176,-0.141,9.793
1771240788.0490916,0.00159,-0.00484,0.00013,-0.0083,-0.0739,9.813
1771240788.09529,-0.00084,0.00388,0.00081,0.0285,-0.1378,9.8018
1771240788.1468096,0.00115,-0.00065,-0.00042,-0.0262,-0.0525,9.7997
1771240788.252384,-0.00137,-0.0004,-0.00029,-0.0461,-0.0423,9.8441
1771240788.3032222,0.00022,2e-05,0.00068,0.0631,-0.1504,9.7915
1771240788.3426747,0.00121,0.00034,0.00019,-0.048,-0.0397,9.8281
1771240788.402547,-0.00101,0.00031,0.00039,0.0156,-0.099,9.7973
1771240788.4486618,-0.00318,0.00794,0.00062,0.0226,-0.1059,9.8134
1771240788.5043004,-0.00057,-0.00345,-0.00073,-0.0279,-0.0586,9.8118
1771240788.5512974,-0.0015,0.00563,0.00028,0.0327,-0.1159,9.7907
1771240788.598031,-0.00034,-0.00109,-6e-05,-0.0089,-0.0528,9.8182
1771240788.6445968,6e-05,0.00146,0.00026,-0.008,-0.1315,9.8023
1771240788.695261,0.00089,-0.00062,0.0,-0.03,-0.0822,9.823
1771240788.7433906,-0.0012,0.00178,0.00027,0.0609,-0.0607,9.8878
1771240788.7937665,-0.00049,0.00038,-0.00023,0.0949,-0.0631,9.8713
1771240788.845731,0.00077,-0.00111,-0.00045,-0.0696,-0.1183,9.7652
1771240788.8930676,-0.00044,-0.00216,-0.00048,-0.1388,-0.0844,9.7292
1771240788.9427378,0.00025,-0.00123,0.00113,0.0161,-0.0855,9.8284
1771240788.9994605,0.00268,-0.00097,2e-05,0.0805,-0.0646,9.8498
1771240789.0432086,0.00095,-0.00533,-0.00099,0.0062,-0.0477,9.816
1771240789.101409,0.00104,0.00071,-0.00025,-0.0166,-0.0506,9.7538
1771240789.1423004,-0.00283,-0.00073,-0.00018,-0.0437,-0.0969,9.8105
1771240789.1951497,0.00052,0.00032,0.00035,0.0357,-0.1509,9.8175
1771240789.2422123,-0.00126,0.0016,0.00035,0.0086,-0.0713,9.832
1771240789.2953186,0.00073,0.00194,0.0006,0.0142,-0.1252,9.8056
1771240789.3422477,0.00106,0.00061,-0.00043,-0.0194,-0.0505,9.8023
1771240789.3978474,-0.00124,-0.00034,0.00025,-0.0075,-0.096,9.8067
1771240789.4425077,0.00083,0.00167,0.00024,0.0194,-0.1128,9.8134
1771240789.4993472,0.00063,-0.00258,-0.00036,0.0086,-0.0911,9.8107
1771240789.5421858,0.00091,0.00293,-0.00025,0.0143,-0.1162,9.8117
1771240789.6051254,0.00102,0.001,3e-05,0.0166,-0.0501,9.7902
1771240789.6441803,-0.00071,-0.00164,0.00013,-0.009,-0.1203,9.7928
1771240789.7055566,0.0016,0.00044,0.00016,-0.0213,-0.081,9.8037
1771240789.7430003,0.0001,-0.00068,0.00059,-0.011,-0.1073,9.8179
1771240789.7918901,-0.00062,0.00481,0.00031,-0.0193,-0.1063,9.7972
1771240789.8419847,0.00102,-0.00186,-0.00049,0.0097,-0.0704,9.8021
1771240789.8936613,4e-05,-0.00133,-0.00017,0.0225,-0.0719,9.8031
1771240789.9423409,-0.00024,1e-05,0.00026,-0.0063,-0.0858,9.8144
1771240789.9932334,0.00038,0.0008,0.00027,-0.0053,-0.0961,9.8085
1771240790.042827,-0.00306,0.00643,0.00017,-0.009,-0.0978,9.8054
1771240790.0922272,0.00077,-0.0017,0.00034,0.0008,-0.1011,9.8084
1771240790.147407,-0.0002,0.00175,0.00018,0.0043,-0.0931,9.8226
1771240790.1927516,0.00086,-0.0011,6e-05,0.0087,-0.0994,9.7857
1771240790.2418067,0.0007,-0.00202,-7e-05,-0.0152,-0.07,9.8198
1771240790.2952447,0.00088,-0.00136,0.00024,0.0313,-0.1218,9.814
1771240790.3454795,0.00152,-0.00108,0.00046,-0.0251,-0.0794,9.8265
1771240790.392095,-0.00147,-0.00069,0.00037,-0.0396,-0.1201,9.7936
1771240790.4485667,-0.0006,-0.0007,0.0003,-0.0071,-0.0773,9.7892
1771240790.494054,-0.00141,0.00338,-8e-05,0.0719,-0.1281,9.8259
1771240790.542941,-0.00014,0.00086,-6e-05,0.2101,-0.0041,9.737
1771240790.6010478,-0.00125,-0.0035,-0.00063,0.1672,-0.0773,9.742
1771240790.6539948,6e-05,0.0008,-0.0008,0.354,-0.1442,9.8098
1771240790.6973426,0.00034,-0.00202,-0.00192,0.283,-0.0626,9.781
1771240790.7481415,-0.00032,-0.00147,-0.00246,0.2814,-0.1059,9.844
1771240790.800623,0.00168,0.00012,-0.00298,0.3231,-0.1035,9.8001
1771240790.842236,-0.00038,0.00107,-0.00364,0.2961,-0.0829,9.8386
1771240790.8925085,-0.00078,0.00746,-0.00266,0.2667,-0.0725,9.7956
1771240790.9441836,-0.00026,-0.00233,-0.00424,0.1763,-0.0945,9.8322
1771240790.9921467,-0.00158,0.00549,-0.00431,0.1461,-0.0909,9.7181
1771240791.043165,-0.00068,-0.00051,-0.00493,0.1718,-0.1117,9.8792
1771240791.0918696,-0.00139,-0.0016,-0.00541,0.044,-0.0904,9.7314
1771240791.1431046,0.00178,0.00034,-0.00537,0.2145,-0.1265,9.85
1771240791.1994963,0.00156,-0.00118,-0.00527,0.0881,-0.0981,9.8101
1771240791.2519627,0.00086,0.00085,-0.00524,0.162,-0.0675,9.8512
1771240791.2969239,0.00028,-0.00513,-0.00662,0.1207,-0.0958,9.7865
1771240791.3524199,0.00079,0.00439,-0.00659,0.097,-0.1001,9.8219
1771240791.395598,-0.00087,-0.00288,-0.00542,0.0928,-0.0561,9.6541
1771240791.4595416,0.0001,-0.00116,-0.00714,0.1674,-0.1017,9.913
1771240791.493636,0.00031,0.0031,-0.0066,0.1385,-0.0963,9.6731
1771240791.5470436,-0.00076,0.00137,-0.00802,0.1679,-0.0775,9.8633
1771240791.5936735,0.00124,-0.00152,-0.00917,0.1995,-0.1301,9.8722
1771240791.6493983,0.00098,-0.00126,-0.008,0.1459,-0.075,9.8774
1771240791.694065,-0.00076,0.00331,-0.00742,0.1613,-0.14,9.8322
1771240791.7524028,0.00101,-0.00115,-0.00859,0.0785,-0.085,9.7748
1771240791.7930999,-0.0001,-0.00107,-0.00918,0.1207,-0.0446,9.7531
1771240791.854272,-0.00013,0.00089,-0.0096,0.1335,-0.0881,9.7592
1771240791.898432,0.0004,-0.00421,-0.00999,0.134,-0.0828,9.8236
1771240791.9423366,-0.00109,-0.0049,-0.01178,0.2047,-0.1007,9.8209
1771240791.9977782,0.00179,-0.00025,-0.01087,0.158,-0.0423,9.8062
1771240792.0419464,-0.00021,-0.00301,-0.01031,0.1432,-0.1002,9.7989
1771240792.091926,-0.00088,0.00817,-0.01117,0.2166,-0.1147,9.8211
1771240792.1430147,0.00125,-0.01226,-0.01158,0.0644,-0.186,9.8036
1771240792.1949534,0.00448,-0.0068,-0.01122,0.2154,-0.0811,9.7759
1771240792.2435157,0.00034,0.00973,-0.01136,0.223,-0.0746,9.8249
1771240792.2926505,0.00167,0.00252,-0.01323,0.1523,-0.0171,9.8063
1771240792.3429866,0.00045,-0.00265,-0.01338,0.1057,-0.1253,9.7444
1771240792.3918252,0.00263,-0.00892,-0.01584,0.2262,-0.1988,9.8791
1771240792.4423933,0.00206,-0.00665,-0.01541,0.1539,-0.1399,9.737
1771240792.4919267,-0.00147,0.01332,-0.01508,0.2993,-0.169,9.7683
1771240792.545919,-0.00076,-0.00621,-0.01116,-0.0227,-0.0725,9.743
1771240792.6271455,-0.00022,0.0117,-0.01419,0.2324,-0.2296,9.8112
1771240792.642383,0.00046,-0.00343,-0.01896,0.1868,-0.2255,9.8268
1771240792.69399,-0.00068,-0.00209,-0.01898,0.1059,-0.1246,9.7551
1771240792.742174,0.00259,-0.00123,-0.01733,0.2576,-0.1674,9.7961
1771240792.7923026,-0.00123,0.00903,-0.01556,0.116,-0.0625,9.8238
1771240792.8420582,0.00098,-0.00321,-0.01735,0.1167,-0.1818,9.8031
1771240792.9198332,0.00202,0.00199,-0.01935,0.1791,-0.0773,9.8204
1771240792.9472032,-2e-05,-0.00046,-0.01918,0.1785,-0.0145,9.849
1771240792.993198,0.00157,0.00062,-0.01856,0.1998,-0.1268,9.7837
1771240793.0428934,-0.00261,0.00651,-0.01912,0.1321,-0.0637,9.8054
1771240793.0945094,-0.00035,0.00384,-0.01998,0.211,-0.1048,9.8237
1771240793.143682,0.00246,-0.00697,-0.01978,0.1634,-0.1383,9.8035
1771240793.19278,0.00165,-0.00071,-0.02021,0.1437,-0.0872,9.8334
1771240793.2422645,0.00043,0.00538,-0.02218,0.3043,-0.1104,9.7423
1771240793.2962303,0.00347,-0.00521,-0.02339,0.1805,-0.1827,9.8031
1771240793.3428211,0.00391,0.00665,-0.02059,0.2885,-0.0907,9.8135
1771240793.3983152,0.00067,0.00257,-0.02098,0.2384,-0.0451,9.8397
1771240793.442423,-0.00229,0.00115,-0.02245,0.0567,0.0155,9.7946
1771240793.4927633,0.00306,-0.00207,-0.02477,0.225,-0.1898,9.7916
1771240793.5488462,0.00318,0.00165,-0.02626,0.1217,-0.0397,9.7947
1771240793.595993,0.00106,0.00918,-0.0237,0.1639,0.0256,9.8484
1771240793.642899,0.00018,-0.00353,-0.02348,0.0838,-0.1114,9.7935
1771240793.6979008,0.00305,0.00669,-0.02561,0.1308,-0.2262,9.7316
1771240793.743514,0.00332,0.00031,-0.02769,0.1927,-0.0095,9.8621
1771240793.7999434,0.0011,-0.00502,-0.02676,0.0533,0.035,9.8185
1771240793.8451486,0.00127,0.00178,-0.02464,-0.0952,-0.0422,9.8403
1771240793.907527,0.00093,-0.0043,-0.02655,0.0669,-0.151,9.8156
1771240793.944569,0.00031,0.00528,-0.02548,0.1763,-0.0368,9.7396
1771240793.992967,-0.00426,0.01599,-0.02731,0.0309,0.0003,9.8253
1771240794.0485594,-0.00566,-0.01159,-0.02852,-0.0454,-0.1283,9.8394
1771240794.0924485,-0.00012,0.00117,-0.02497,0.1565,-0.1204,9.7437
1771240794.142938,-0.00045,0.00645,-0.02518,0.296,-0.1891,9.7939
1771240794.1937559,0.00237,0.00074,-0.02856,0.0641,-0.1018,9.7881
1771240794.2420561,-0.0021,-0.00181,-0.03021,-0.0599,0.0224,9.9154
1771240794.297465,0.00049,-0.00238,-0.0287,0.1078,-0.1257,9.8396
1771240794.3419564,0.00277,-0.00898,-0.02651,0.0151,-0.0774,9.7844
1771240794.3958783,-0.00667,0.00755,-0.0251,-0.1344,0.0421,9.8968
1771240794.44358,-0.00091,-0.00478,-0.02755,0.0259,-0.3753,9.7835
1771240794.4922466,0.00689,-0.00016,-0.02884,0.1673,-0.074,9.7046
1771240794.5435011,0.00314,0.00538,-0.02787,0.1062,-0.228,9.8084
1771240794.592392,0.0046,-0.0082,-0.0288,0.0698,-0.1582,9.7491
1771240794.6428523,0.00131,0.00889,-0.03157,0.0858,-0.17,9.8956
1771240794.692411,0.00253,-0.01298,-0.03036,0.1379,-0.1535,9.7177
1771240794.7453961,0.00156,0.01543,-0.0298,0.2253,-0.1222,9.7746
1771240794.79192,-0.00134,0.00642,-0.02958,-0.0539,-0.0466,9.9757
1771240794.8494985,-0.0002,-0.00519,-0.02951,0.2957,-0.0674,9.7133
1771240794.8928323,0.00048,-0.00369,-0.0285,0.1113,-0.2712,9.8425
1771240794.9474633,0.00165,0.01917,-0.03142,0.135,-0.1178,9.9426
1771240794.9937415,0.0054,-0.00997,-0.03161,0.2747,-0.0012,9.8052
1771240795.0428863,0.00332,-0.00475,-0.02738,0.1887,-0.0259,9.7548
1771240795.0923822,0.00431,0.00588,-0.02894,-0.0728,-0.1166,9.8383
1771240795.1437738,0.00329,-0.00669,-0.03183,-0.1442,0.1069,9.8301
1771240795.1926613,0.0014,0.0026,-0.03394,0.2031,-0.1817,9.7875
1771240795.2457433,0.00336,0.00784,-0.03188,0.1304,-0.084,9.845
1771240795.2942567,0.00116,0.00343,-0.03076,0.2387,-0.0461,9.7668
1771240795.3472633,0.00025,0.00085,-0.03288,0.176,-0.255,9.7746
1771240795.3937201,0.002,0.00936,-0.03588,0.1084,-0.1156,9.7687
1771240795.449393,-0.001,-0.00693,-0.0341,0.0492,-0.0981,9.7314
1771240795.4927728,-0.00148,-0.00349,-0.03111,0.0212,-0.273,9.8409
1771240795.5513525,0.0018,0.01223,-0.03083,0.1235,-0.2373,9.9394
1771240795.5941806,-0.00119,0.00957,-0.03455,0.0207,-0.1692,9.7253
1771240795.6425705,-0.00149,0.00683,-0.03644,0.1968,-0.1809,9.8167
1771240795.6925645,-0.00236,0.0059,-0.03397,-0.0431,-0.2815,9.8923
1771240795.7448366,-0.00469,0.021,-0.03525,0.2529,-0.2879,9.7369
1771240795.795117,4e-05,-0.00893,-0.035,-0.0979,-0.1482,9.8938
1771240795.8471768,-0.00525,-0.00166,-0.03123,-0.1661,-0.3388,9.8426
1771240795.8935258,0.00188,0.01038,-0.03826,0.2882,-0.3684,9.8404
1771240795.950475,0.00109,-0.01672,-0.03357,-0.2914,-0.2722,9.8724
1771240795.9973469,-9e-05,0.00408,-0.03054,0.0175,0.0063,9.8454
1771240796.052778,-0.00445,0.00944,-0.03434,0.1338,-0.0466,9.751
1771240796.0922582,-0.00314,0.02512,-0.03391,0.1134,-0.1296,9.7375
1771240796.1472108,-0.00226,-0.00306,-0.03187,0.0449,-0.1589,9.7559
1771240796.1927512,-0.00223,-0.00345,-0.03612,-0.0661,0.0591,9.8724
1771240796.2434564,0.00242,-0.00922,-0.03647,0.1336,0.0679,9.8881
1771240796.292044,-0.00198,-0.00191,-0.03413,-0.098,0.2482,9.7619
1771240796.3424087,-0.00013,0.01833,-0.0333,0.0745,-0.1538,9.8573
1771240796.392646,-0.00188,-0.00895,-0.0344,-0.0467,-0.1204,9.9145
1771240796.4467587,0.00246,0.00388,-0.03431,0.2075,-0.3765,9.6401
1771240796.4991763,0.00155,-0.01738,-0.0334,-0.0066,-0.2829,9.8013
1771240796.542594,0.00895,0.00294,-0.03386,0.1967,-0.2848,9.8963
1771240796.5975218,0.00131,-0.00678,-0.03058,-0.1091,0.1259,9.7921
1771240796.6428225,2e-05,0.01621,-0.04142,0.5724,-0.2376,9.582
1771240796.6934886,0.00387,-0.02242,-0.04101,0.254,-0.3717,9.7321
1771240796.744035,0.0056,-0.00966,-0.0386,-0.3209,-0.0732,9.6694
1771240796.7966697,0.00308,-0.00074,-0.03709,0.1966,-0.2776,9.8782
1771240796.8519614,0.01305,0.00376,-0.031,-0.212,-0.4797,9.9224
1771240796.8921394,0.01527,0.0165,-0.02653,0.471,0.1465,9.6938
1771240796.9451332,0.00548,-0.032,-0.02439,-0.3124,-0.1286,9.8579
1771240796.991918,-0.0013,0.01688,-0.04587,0.1894,-0.8138,9.6773
1771240797.0424843,-0.00859,0.06893,-0.04532,0.7051,0.1118,9.524
1771240797.0930927,-0.0083,0.03559,-0.03541,0.5915,0.2031,9.8994
1771240797.1429274,-0.0119,-0.05294,-0.02727,-0.2737,-0.4298,9.8571
1771240797.1971495,4e-05,-0.03864,-0.02947,-0.0981,-0.0439,9.718
1771240797.241881,0.0128,0.01043,-0.03677,-0.0934,0.1064,9.9489
1771240797.2964644,0.00145,0.00993,-0.0326,-0.1214,0.6943,9.7146
1771240797.3438945,-0.00524,0.02516,-0.02939,0.0904,-0.0024,9.5668
1771240797.3920896,-0.00104,0.01327,-0.03329,0.472,-0.185,9.7248
1771240797.442008,0.00474,-0.02078,-0.03499,-0.0628,-0.2256,9.7774
1771240797.4945261,0.00721,-0.01927,-0.02846,-0.3645,-0.3618,9.9898
1771240797.548457,0.00968,0.03743,-0.03549,0.3944,0.0509,9.7159
1771240797.6017137,0.00452,0.02448,-0.03445,0.2011,0.0165,9.6854
1771240797.6419756,0.00269,0.00401,-0.033,-0.0391,-0.007,9.9957
1771240797.6987343,0.00185,0.00981,-0.03427,0.1584,0.5274,9.6144
1771240797.7421062,-0.00385,0.0078,-0.03222,0.2007,0.1451,9.9293
1771240797.7927828,-0.00232,-0.0075,-0.02978,-0.0314,-0.3357,9.8312
1771240797.8422763,-0.00356,0.0128,-0.03157,-0.1029,0.0225,9.6723
1771240797.8994174,-0.00837,0.01674,-0.03163,0.1248,-0.2686,9.8684
1771240797.9421844,-0.0089,0.01502,-0.0329,0.2892,-0.2446,9.7923
1771240797.9978328,-0.00035,-0.01912,-0.03005,0.0378,-0.3422,9.6595
1771240798.0443451,-0.00087,0.01326,-0.02789,-0.1154,-0.2179,9.8466
1771240798.0999854,-0.00687,0.00512,-0.0306,0.1004,-0.037,10.0076
1771240798.1443598,-0.00647,0.01043,-0.0307,0.2292,-0.2882,9.7158
1771240798.2065456,-0.00049,0.01184,-0.02794,0.4622,-0.2514,9.8857
1771240798.247639,-0.00748,-0.00724,-0.02322,-0.1172,-0.1458,9.7505
1771240798.296823,-0.00713,-0.00024,-0.02512,-0.095,-0.3709,9.767
1771240798.347871,-0.00485,-0.00291,-0.02469,0.0761,-0.0913,9.7869
1771240798.3973393,-0.0021,-0.0016,-0.02263,-0.0364,-0.056,9.8073
1771240798.4442286,-0.0017,-0.00627,-0.0231,-0.1408,-0.3766,9.8606
1771240798.494532,-0.00068,0.02639,-0.02717,0.4297,0.119,9.7901
1771240798.550017,0.01172,-0.06065,-0.01817,-0.1169,-0.6071,9.5135
1771240798.5951512,0.00878,0.05188,-0.01604,-0.1507,0.285,9.7239
1771240798.6452832,-0.00811,0.03182,-0.02397,0.9147,0.4109,9.6067
1771240798.6934438,-0.00021,-0.01755,-0.01652,0.3657,-0.117,9.6302
1771240798.7457623,0.00122,-0.00671,-0.01845,-0.0583,-0.1346,10.0414
1771240798.7923143,0.00095,-0.0287,-0.02343,-0.0728,0.0292,9.7289
1771240798.8420818,0.00709,-0.01109,-0.01917,-0.1675,-0.1414,9.8493
1771240798.8926268,0.00903,0.0193,-0.01536,-0.4059,-0.0765,9.7612
1771240798.9426067,-0.00516,0.02974,-0.01973,0.1205,0.1444,9.8635
1771240798.9949384,-0.00856,-0.01086,-0.01904,0.539,-0.0446,9.5048
1771240799.0422237,0.00038,-0.01247,-0.01934,-0.2746,-0.2955,9.7652
1771240799.0948372,-0.00269,-0.01863,-0.02009,-0.0092,0.2684,9.8879
1771240799.146327,-0.01065,0.02301,-0.01332,-0.0145,0.1256,9.928
1771240799.192911,-0.00495,0.0146,-0.01386,0.232,-0.222,10.0067
1771240799.2421165,0.00726,0.00764,-0.02649,0.2636,-0.2159,9.7963
1771240799.2980497,-0.00305,-0.03955,-0.03157,0.1641,0.7605,9.7775
1771240799.3430161,-0.00936,-0.06641,-0.00899,-0.5886,0.6785,9.928
1771240799.3945105,-0.00973,-0.03031,-0.00684,-0.7491,0.322,9.849
1771240799.4427822,-0.00893,0.02847,-0.01353,-0.1867,0.2867,10.0699
1771240799.492334,-0.0041,0.01443,-0.01562,0.0201,-0.0842,9.7931
1771240799.5442908,-0.00012,0.00364,-0.01498,0.2076,-0.1281,9.7735
1771240799.5970936,0.00198,-0.01286,-0.00939,-0.0088,-0.1901,9.7576
1771240799.645959,0.00639,-0.01079,-0.00458,-0.3202,-0.3413,9.8052
1771240799.6917481,0.01017,-0.01481,-0.0067,0.1179,-0.6122,9.7297
1771240799.7460892,0.01442,-0.0092,-0.00338,0.1375,-0.0702,9.7922
1771240799.7961972,0.00956,-0.01271,-0.001,-0.2066,0.0546,9.9489
1771240799.8476331,0.00564,0.00015,-0.00025,-0.0864,0.1653,9.9954
1771240799.8920739,0.0064,0.01174,0.00844,0.3021,0.4862,9.7599
1771240799.9446213,0.00011,-0.00044,0.0201,-0.3189,0.1584,9.6396
1771240799.9917722,-0.00776,0.00121,0.02373,-0.3143,0.046,9.6945
1771240800.0458748,-0.00764,0.01242,0.02032,0.4609,0.0131,9.9873
1771240800.0923946,-0.0058,-0.00521,0.02531,0.2569,0.1748,9.8495
1771240800.1477363,-0.00791,-0.00743,0.02947,0.1616,0.3003,10.0421
1771240800.1976924,-0.00796,0.0037,0.03229,0.329,-0.0179,9.7884
1771240800.2612586,0.00141,-0.01148,0.03683,0.0277,-0.1186,9.6922
1771240800.3026903,0.00483,0.01713,0.03287,0.3288,-0.1718,9.6803
1771240800.366686,0.00264,-0.00179,0.03457,-0.005,0.2743,9.8821
1771240800.3935654,0.00446,0.00221,0.03556,-0.3969,0.1047,9.7394
1771240800.4418101,-0.00246,0.02849,0.03233,0.1494,0.4995,9.837
1771240800.4922376,-0.0018,0.05557,0.03259,0.5304,0.0787,9.624
1771240800.547518,-0.00683,-0.03094,0.03294,0.146,0.2221,9.9282
1771240800.592386,0.00957,-0.06831,0.03741,-0.7406,0.3132,9.7884
1771240800.6424608,0.0144,-0.03095,0.03797,-0.38,0.719,9.8744
1771240800.6941254,0.01468,0.01326,0.03516,-0.4981,0.6167,9.9521
1771240800.744815,0.01386,0.04137,0.03515,0.0723,0.415,9.845
1771240800.79314,0.00967,0.02027,0.03228,0.6366,0.212,9.7965
1771240800.8446214,0.01135,-0.02156,0.03511,0.1611,0.3048,9.6873
1771240800.892675,0.00844,-0.00855,0.03837,0.248,0.2335,9.7161
1771240800.943913,0.00519,-0.00908,0.04033,-0.3063,0.2701,9.7655
1771240800.9921715,0.00619,-0.0447,0.03942,-0.092,-0.2492,9.8095
1771240801.0435383,0.01372,-0.00033,0.03891,0.1511,-0.648,9.5866
1771240801.0937684,0.00811,0.00413,0.0409,-0.0652,0.1273,9.9306
1771240801.1539464,-0.00312,-0.02046,0.04181,0.0006,-0.0587,9.9564
1771240801.193911,0.00258,-0.0084,0.04328,0.2137,-0.1593,9.8856
1771240801.242297,-0.00565,-0.01987,0.04332,0.1567,-0.0246,9.5777
1771240801.293027,-0.01437,0.02927,0.04018,-0.2067,0.2553,10.1384
1771240801.3421705,-0.01118,0.00842,0.04127,-0.0855,0.013,9.8248
1771240801.392623,-0.01505,0.01008,0.04351,0.3764,0.0318,9.6564
1771240801.4417875,-0.01466,0.00599,0.04231,0.1783,-0.1911,9.8553
1771240801.49409,-0.00535,0.00061,0.04253,-0.0799,0.047,9.8406
1771240801.551611,-0.00398,-0.00519,0.04357,-0.1398,0.0772,10.0758
1771240801.5919337,-0.01134,-0.02097,0.04435,-0.4077,-0.0945,9.8575
1771240801.6433103,-0.00698,-0.01372,0.04622,-0.0479,-0.1878,9.7136
1771240801.6995096,-0.00211,0.01828,0.04484,0.4084,-0.222,9.729
1771240801.7434623,0.00616,0.00431,0.0432,-0.0241,-0.0998,9.6962
1771240801.7934802,0.00433,-0.00895,0.04382,-0.2813,-0.0806,9.7898
1771240801.8468242,0.00774,0.01406,0.0449,-0.1141,-0.3214,9.874
1771240801.8933313,-0.00129,0.01592,0.04914,0.0966,-0.2757,9.638
1771240801.948174,-0.00282,0.00321,0.0475,0.2986,-0.9424,9.8614
1771240802.0066206,0.01431,-0.00025,0.03936,0.6789,-0.8361,9.5378
1771240802.0432625,0.02153,-0.04412,0.03492,0.1991,-0.5113,9.6615
1771240802.094507,0.02483,-0.02286,0.03831,-0.2022,-0.7835,9.7155
1771240802.1619065,0.02995,0.01701,0.04117,0.1441,-0.4844,9.7009
1771240802.2255473,0.03547,0.00243,0.03624,-0.1471,-0.2356,9.6263
1771240802.2437432,0.03062,-0.00431,0.03875,-0.2575,-0.2885,10.059
1771240802.3052022,0.02678,-0.00324,0.03503,-0.2263,0.063,10.0157
1771240802.3424509,0.01554,-0.00303,0.03074,0.1295,0.5578,9.8033
1771240802.4020824,0.00777,-0.03917,0.03656,-0.8542,0.3916,10.1342
1771240802.4437528,-0.00264,-0.02405,0.0376,-0.6506,0.1471,10.0418
1771240802.5081465,-0.00914,0.02693,0.03337,-0.4698,0.4021,9.8538
1771240802.5477898,-0.01884,0.02362,0.03236,0.1981,0.1518,9.9213
1771240802.6096263,-0.01947,-0.01368,0.03243,-0.3079,-0.164,9.6373
1771240802.6498039,-0.02141,-0.01045,0.03526,-0.2074,-0.1681,9.8118
1771240802.6932764,-0.01861,-0.00393,0.03787,0.0163,-0.0816,9.7505
1771240802.7426288,-0.00778,-0.00265,0.03159,0.3015,-0.5636,9.6694
1771240802.7923234,0.01385,0.00419,0.02657,0.2949,-0.4539,9.3757
1771240802.8451352,0.02547,-0.02126,0.02749,-0.1943,-0.4571,9.6311
1771240802.8980997,0.03407,0.03065,0.03013,-0.0959,0.011,9.813
1771240802.946835,0.03182,0.00502,0.03665,-0.2638,0.6214,9.8863
1771240802.994434,0.02593,0.00501,0.03384,-0.0789,0.4457,9.9241
1771240803.0425966,0.0201,0.01337,0.0258,-0.0562,0.7145,9.7918
1771240803.0974321,0.01444,0.01954,0.02429,0.086,0.4854,9.969
1771240803.142475,0.00912,0.0355,0.02762,-0.491,0.349,9.7976
1771240803.199408,-0.00223,0.01993,0.02796,-0.2544,0.2427,9.9638
1771240803.2420585,-0.00745,0.01341,0.02309,-0.1047,0.1234,9.9991
1771240803.292399,-0.00325,0.02076,0.01951,0.155,0.2788,9.8634
1771240803.3421886,-0.00938,0.01179,0.01998,0.2679,0.7689,10.1548
1771240803.3937922,-0.02116,-0.00462,0.02805,-0.4877,-0.0201,10.0599
1771240803.442699,-0.00793,0.03564,0.0316,-0.3053,-0.5772,9.6645
1771240803.4963193,0.01092,-0.04974,0.0356,0.4584,-0.6687,9.2242
1771240803.5465956,0.02526,0.03895,0.02513,0.2885,-0.4773,9.6759
1771240803.592622,0.03017,-0.02878,0.02212,-0.4051,0.4534,9.8531
1771240803.682093,0.02717,-0.01602,0.0269,-0.1984,0.9684,10.3213
1771240803.6954594,0.01332,-0.08408,0.0265,-0.6548,1.2447,10.0963
1771240803.7428448,0.00124,-0.02447,0.02659,-0.4007,1.2035,10.0416
1771240803.7966812,-0.00915,-0.02791,0.03094,-0.9158,0.8161,10.0865
1771240803.8525226,-0.01735,0.00207,0.03152,-0.2484,0.8875,9.7634
1771240803.9055457,-0.03005,-0.02209,0.03484,-0.4261,0.1634,9.5581
1771240803.9465995,-0.02003,-0.007,0.02933,-0.1183,-0.8819,9.7801
1771240803.993095,-0.01407,-0.0057,0.02429,-0.1749,-0.2191,9.5411
1771240804.0423114,-0.01867,0.00946,0.02712,0.0606,0.4095,9.5435
1771240804.0926592,-0.0342,-0.04027,0.04191,-0.7965,0.1113,9.7143
1771240804.149275,-0.01353,-0.08886,0.04806,-1.0434,-0.9148,9.2684
1771240804.192869,-0.00616,0.02467,0.02707,0.4788,0.0561,9.6663
1771240804.2496896,0.00806,-0.04057,0.02272,0.8567,-0.4199,9.8779
1771240804.2923956,0.02698,-0.02699,0.03894,0.0935,0.2181,9.489
1771240804.3478906,0.01746,-0.0385,0.04394,-0.1405,0.431,10.3029
1771240804.4021935,0.02128,-0.0162,0.03464,-0.2728,-0.1516,9.9464
1771240804.4485037,0.02176,0.01322,0.02422,0.9554,0.2191,9.6389
1771240804.4924333,0.0059,-0.01675,0.03034,0.5151,-0.0348,9.7524
1771240804.561124,-0.01559,0.03057,0.03297,0.72,0.8511,9.3706
1771240804.592516,-0.02416,-0.0202,0.03579,-0.5252,-0.0541,9.9925
1771240804.642014,-0.01121,-0.05845,0.03444,-1.0354,-0.1696,10.3096
1771240804.6922944,-0.00014,-0.02569,0.02836,-0.1119,0.5702,10.3919
1771240804.7455037,0.00344,-0.00614,0.03181,1.0999,0.6067,9.8104
1771240804.792098,0.01182,-0.01842,0.0349,-0.7903,-0.4848,9.3349
1771240804.8421261,0.01812,0.04098,0.02854,1.1094,0.1449,9.2109
1771240804.8952322,0.01698,-0.04186,0.0327,-0.5625,0.7249,9.748
1771240804.9422665,0.00825,-0.01616,0.02635,-0.413,0.6276,9.9595
1771240804.9940033,-0.00252,0.01473,0.02641,0.9993,0.6972,9.77
1771240805.0484896,-0.00359,0.06916,0.02497,0.7151,0.3148,9.9872
1771240805.0940363,-0.01147,0.0295,0.03224,-1.2095,0.1218,10.0836
1771240805.146362,-0.02136,-0.02715,0.02838,-0.1762,0.6054,9.72
1771240805.195223,-0.01245,-0.02777,0.02677,-0.6805,-0.9715,9.7646
1771240805.242629,0.00392,0.00083,0.02153,0.082,-0.256,10.3001
1771240805.2982883,-0.00993,0.00381,0.01461,0.1678,0.2533,9.8655
1771240805.3454354,-0.02741,-0.0696,0.01738,-0.9016,0.3581,10.0989
1771240805.3980248,-0.02199,0.08082,0.02222,0.5985,-0.0895,10.2747
1771240805.4426923,-0.01561,0.00058,0.03066,0.2982,0.2343,9.3769
1771240805.4977336,-0.0312,-0.08282,0.03488,-0.8587,0.4641,9.4525
1771240805.5444264,0.00517,0.06721,0.01546,-1.0421,-2.647,10.0933
1771240805.592712,0.01933,-0.00325,0.01288,0.0423,-0.3979,9.7193
1771240805.6419156,0.00387,-0.05322,0.01828,0.8933,-0.126,9.2677
1771240805.6920152,0.00939,0.00107,0.02295,-0.1042,-0.0283,9.7608
1771240805.742888,0.01423,0.01174,0.02769,-0.4321,0.6193,9.8738
1771240805.7925966,0.00904,-0.02981,0.01972,-0.8786,-0.0768,9.8268
1771240805.8432555,0.00196,-0.00833,0.01521,-0.7417,0.1866,9.5994
1771240805.8927193,-0.00935,0.00566,0.01574,0.0584,0.5015,9.6647
1771240805.941973,-0.01627,-0.0001,0.01197,-0.5556,0.4936,9.6024
1771240805.997213,-0.03032,0.01962,0.0156,-0.325,0.5827,9.931
1771240806.0421991,-0.02783,0.03727,0.0266,-0.4171,-0.0986,9.9603
1771240806.0921996,-0.01634,0.03409,0.027,-1.147,-0.7335,9.8395
1771240806.1484964,-0.01716,0.08228,0.00945,-0.3904,-0.8714,9.723
1771240806.195039,0.00556,0.06511,0.00855,0.5918,-0.8356,9.7768
1771240806.2440777,0.02458,-0.00033,0.01027,-1.1405,-0.3612,9.5434
1771240806.3033307,0.01813,0.00067,0.01668,-0.9086,0.9309,9.794
1771240806.3469553,0.01168,-0.00046,0.00991,-1.3618,0.6419,9.9171
1771240806.394302,0.00343,-0.00621,0.00783,-1.2562,0.9255,10.0069
1771240806.4463186,-0.00064,0.03778,0.00688,-1.0476,-0.1124,9.9354
1771240806.501154,0.00044,0.0246,0.01418,-0.7652,0.2309,9.8147
1771240806.542533,-0.00752,0.00564,0.01528,-0.6871,0.184,9.6321
1771240806.5991063,-0.00733,-0.0207,0.01074,-0.9599,0.2931,9.7041
1771240806.643495,-0.00284,-0.01742,0.00771,-0.888,0.0657,9.8808
1771240806.7048779,-0.00637,0.02434,0.007,-0.6477,0.0116,9.8169
1771240806.7421026,-0.00701,0.00482,0.00706,-0.3933,-0.6448,9.7914
1771240806.7976007,-0.00209,-0.00702,0.00788,-0.7,-0.5748,9.6034
1771240806.8428679,0.00115,-0.02699,0.00832,-0.7879,-0.2466,9.7781
1771240806.8938053,-0.00081,0.00637,0.0074,-0.924,-0.379,9.8702
1771240806.9495463,0.00196,-0.00976,0.00618,-0.7457,-0.1352,9.8531
1771240806.9949803,-0.0025,0.00393,0.00753,-0.7273,-0.049,9.8395
1771240807.0424223,0.00064,0.00409,0.00632,-0.6902,-0.2464,9.8467
1771240807.0942044,0.00144,-0.00819,0.00602,-0.9221,-0.0911,9.786
1771240807.1435056,0.00225,0.00725,0.00543,-0.7885,-0.0801,9.8424
1771240807.1926477,0.00106,-0.00114,0.00175,-0.696,-0.027,9.7596
1771240807.2487779,-0.00091,-0.00123,0.00404,-0.6596,-0.0634,9.7913
1771240807.2921875,-0.00264,0.00338,0.00353,-0.59,-0.136,9.7714
1771240807.342313,-0.00114,-0.00449,0.00167,-0.5045,-0.1219,9.8057
1771240807.394558,0.00075,-0.00914,-0.00115,-0.667,-0.1071,9.8223
1771240807.4466,-0.00059,-0.0038,0.00115,-0.6433,0.1145,9.7649
1771240807.492132,-0.00202,-0.00556,0.00349,-0.6861,0.0507,9.8031
1771240807.546602,-0.00089,0.0005,0.00309,-0.6315,0.0063,9.8246
1771240807.5936222,-0.00279,0.00257,0.00222,-0.5968,-0.0046,9.8196
1771240807.645827,2e-05,-0.00012,0.00097,-0.5708,-0.0697,9.7804
1771240807.6937456,-0.00029,0.00271,0.00026,-0.5706,0.0309,9.7961
1771240807.7429802,-0.00065,0.00164,0.00072,-0.6046,0.0014,9.8147
1771240807.792267,-0.00091,0.00445,0.00238,-0.5932,-0.0689,9.8278
1771240807.8420813,-0.0005,0.00094,0.00067,-0.6113,-0.0517,9.7549
1771240807.8952105,-2e-05,-0.00207,-0.00111,-0.5201,0.009,9.8369
1771240807.9458852,0.00184,-0.00597,-0.00125,-0.5568,0.0296,9.8011
1771240807.997438,-0.00646,0.00154,-0.00146,-0.2155,0.2432,9.9518
1771240808.0452943,-0.00836,-0.02306,0.00052,-0.2468,0.0793,9.9717
1771240808.0926068,-0.01031,-0.00443,0.00131,-0.0764,-0.0156,9.8368
1771240808.1466858,-0.00874,-0.01268,-0.00101,-0.0311,-0.0819,9.7559
1771240808.195325,-0.00478,-0.01596,-0.00302,-0.1603,-0.2836,9.8181
1771240808.2454805,0.00149,-0.01925,-0.00687,0.0345,0.0056,9.6555
1771240808.2925239,0.00062,-0.00798,-0.00216,0.2467,-0.0103,9.6229
1771240808.345665,-0.00124,0.01063,0.00589,0.318,-0.1383,9.4421
1771240808.3922215,0.00105,0.00827,-0.00068,0.2944,-0.177,9.8169
1771240808.444541,-0.00069,-0.00586,-0.00597,0.065,-0.1089,9.821
1771240808.4982293,0.0008,-0.00871,-0.00343,0.1355,0.0199,9.8272
1771240808.5447783,-0.00197,-0.00212,0.00164,0.0676,0.2479,9.8783
1771240808.5932477,-0.00111,-0.00189,0.00256,-0.1116,0.0912,9.8069
1771240808.653897,0.00203,-0.00044,-0.00012,0.0592,0.0212,9.7904
1771240808.6916587,0.00255,0.00249,-0.00261,0.0759,0.215,9.865
1771240808.749266,-0.00144,-2e-05,-5e-05,0.0428,0.1721,9.8013
1771240808.7961998,0.00083,0.00042,0.00067,0.0652,0.0206,9.8133
1771240808.851705,-0.00014,0.00121,-0.00068,0.0598,-0.0411,9.8185
1771240808.893149,0.00147,0.0004,-0.00074,0.0623,0.0023,9.8233
1771240808.943331,0.00069,0.00335,0.00097,0.0782,0.0782,9.7919
1771240808.9925764,0.00014,-0.00161,0.00023,0.0255,0.0285,9.8119
1771240809.0424664,0.00043,0.00097,5e-05,0.1101,-0.079,9.793
1771240809.093655,-0.00218,0.00085,-0.00068,0.0717,-0.0031,9.8225
1771240809.146744,-0.00053,0.00034,0.00013,0.0791,-0.0222,9.8011
1771240809.1925225,-0.00054,0.00054,0.00025,0.068,-0.0109,9.816
1771240809.2415392,-0.00093,-2e-05,4e-05,0.0818,-0.0478,9.7974
1771240809.2919202,0.00074,0.0002,-0.00104,0.0538,0.0061,9.8138
1771240809.3419564,-0.00148,0.00281,-6e-05,0.0526,-0.0074,9.7938
1771240809.3933547,-0.00082,0.00048,0.00013,-0.0239,-0.0312,9.8175
1771240809.4475029,0.00049,-0.00919,-0.00046,0.1016,-0.0437,9.8035
1771240809.4924467,0.00052,-0.00461,-0.00029,0.3388,0.0454,9.8113
1771240809.5436373,0.00055,-0.00298,0.00055,0.41,-0.0448,9.8192
1771240809.5976677,0.00067,-0.00898,0.0006,0.471,-0.0359,9.8435
1771240809.6422591,0.00263,-0.00432,-5e-05,0.4017,-0.0718,9.7606
1771240809.692349,-0.00066,0.00821,0.00139,0.5533,0.0296,9.8493
1771240809.7416174,0.00061,-0.00164,0.00074,0.444,-0.0469,9.7625
1771240809.798144,-0.00214,0.00505,0.00111,0.456,0.0211,9.8474
1771240809.843648,0.00022,0.00399,0.00078,0.3962,-0.081,9.7852
1771240809.8923435,0.00256,0.00339,0.00182,0.3682,0.0457,9.8163
1771240809.9418416,0.00127,-0.0054,0.00196,0.2099,-0.0036,9.778
1771240809.9922957,-0.00177,0.0033,0.00226,0.3589,0.0046,9.8347
1771240810.0458875,-0.0022,0.00439,0.00123,0.2449,0.0649,9.8325
1771240810.0988908,-0.00265,-0.00471,-0.00019,0.2622,-0.0105,9.8244
1771240810.1475732,0.00163,-0.00134,0.00101,0.3729,-0.0249,9.7807
1771240810.2019281,0.00156,-0.0057,0.00313,0.2452,-0.0927,9.7892
1771240810.2426078,0.00417,0.00194,0.0029,0.3148,-0.1129,9.7867
1771240810.298875,0.00323,0.01163,0.00071,0.2986,-0.0402,9.7751
1771240810.344189,-0.00104,-0.00376,-0.00011,0.2517,0.1453,9.8787
1771240810.3990178,-0.00326,0.00188,0.00229,0.3466,0.0893,9.8005
1771240810.4500155,-0.00039,-0.00125,0.00418,0.3293,-0.0159,9.8103
1771240810.497976,-0.00328,-0.0036,-0.00089,0.3785,-0.16,9.8073
1771240810.545085,-7e-05,-0.00039,-0.00231,0.4147,-0.1231,9.9405
1771240810.5929008,0.00093,-0.0028,0.00197,0.2495,0.0666,9.7845
1771240810.6415975,-0.00238,0.01114,0.00431,0.2912,0.0442,9.853
1771240810.6961505,0.00205,-0.00381,0.0013,0.0739,-0.0913,9.8517
1771240810.7419298,0.00257,0.00758,-0.00109,0.1531,0.0854,9.7002
1771240810.7977734,0.00275,-0.00198,-0.00412,0.2057,0.0467,9.8298
1771240810.8425536,-0.00066,0.01136,0.00033,0.3396,0.1024,9.8358
1771240810.899981,-0.0021,0.0118,0.00141,0.2955,-0.061,9.849
1771240810.9440932,-0.00035,0.00181,-0.00142,0.2047,-0.0801,9.805
1771240811.0044339,0.0023,0.00233,-0.00417,0.3793,-0.2126,9.8021
1771240811.045873,0.00236,-0.0045,-0.00466,0.2996,0.1024,9.8353
1771240811.095107,-0.0,0.00219,-0.00136,0.3125,0.0027,9.8499
1771240811.143324,0.00085,0.00827,-0.00069,0.33,0.0988,9.7877
1771240811.196242,0.00237,-0.00738,-0.00257,0.3291,-0.0413,9.8541
1771240811.2441382,0.00175,-0.00773,-0.00554,0.2814,-0.0972,9.77
1771240811.2965276,0.00074,0.0109,-0.00472,0.4818,0.0433,9.8317
1771240811.347415,-0.00138,-0.00981,-0.00214,0.318,-0.1037,9.8194
1771240811.3930786,0.00176,-0.00271,-0.00121,0.4191,-0.1839,9.7925
1771240811.4425159,0.00285,-0.00024,-0.00531,0.4967,-0.0668,9.7957
1771240811.4928784,0.00528,-0.00657,-0.00427,0.2863,-0.0584,9.8834
1771240811.5456836,0.00247,-0.00097,-0.00247,0.2286,-0.0702,9.9869
1771240811.596731,0.00601,0.00685,-0.00315,0.398,0.0447,9.7903
1771240811.6476047,0.00455,0.01114,-0.00253,0.3788,0.2102,9.7952
1771240811.6965048,0.00258,-0.00412,-0.00694,0.3517,-0.0767,9.7758
1771240811.7423534,0.00422,-0.00973,-0.00692,0.3697,-0.0114,9.8039
1771240811.792151,0.00239,-0.01224,-0.00289,0.2958,0.0577,9.9201
1771240811.8430681,6e-05,0.00338,-0.00164,0.2768,-0.1115,9.6951
1771240811.8936784,1e-05,-0.00093,-0.00418,0.2301,-0.0628,9.8292
1771240811.9438548,0.00023,0.01418,-0.0058,0.5916,0.1083,9.7592
1771240811.9924395,-0.00163,-0.01266,-0.00709,0.3813,0.0579,9.7137
1771240812.042114,-0.00402,-0.01597,-0.00944,0.3929,-0.0263,9.8392
1771240812.0930684,-0.00622,-0.00761,-0.0058,0.2752,-0.0732,9.7961
1771240812.1426861,-0.00661,-0.00379,-0.00487,0.3575,-0.1457,9.8517
1771240812.1936288,-0.00051,0.0022,-0.00541,0.4262,-0.222,9.8879
1771240812.2440305,0.00118,-0.00281,-0.0083,0.3232,0.1308,9.8331
1771240812.2934248,-0.00785,-0.00679,-0.01153,0.425,0.1176,9.7664
1771240812.3426118,-0.00236,-0.02522,-0.00531,-0.0775,0.0731,9.8118
1771240812.3932688,-0.00512,-0.00632,-0.00162,0.0194,-0.2706,9.8818
1771240812.4468677,-0.00253,-0.00409,-0.00431,0.1944,-0.2618,9.8643
1771240812.491432,0.00391,0.01106,-0.00473,0.5186,-0.1261,9.9045
1771240812.5455887,0.0044,0.0165,-0.0076,0.6279,0.0716,9.7296
1771240812.5935624,0.00518,0.01918,-0.00649,0.5737,0.0903,9.7439
1771240812.6518512,0.00347,0.00088,-0.00618,0.3447,0.2711,9.6114
1771240812.6928294,0.0012,-0.01316,-0.00723,0.3358,0.0702,9.7796
1771240812.7431598,0.00167,-0.01294,-0.00655,0.2561,0.1853,9.7239
1771240812.7949746,0.00107,0.00032,-0.00688,0.4494,0.148,9.8292
1771240812.8462608,0.00314,0.01037,-0.00605,0.5246,-0.0349,9.8716
1771240812.8943346,0.00505,0.00604,-0.00529,0.3126,-0.1759,9.839
1771240812.9530025,0.00411,0.00993,-0.00752,0.3523,0.1147,9.6513
1771240812.9923787,0.00094,-0.00176,-0.0064,0.4369,-0.1338,9.8253
1771240813.0506916,0.00509,0.0156,-0.00651,0.4936,-0.398,9.7268
1771240813.1113403,0.00744,0.00637,-0.00962,0.5066,0.0644,9.9427
1771240813.1525311,0.00691,-0.00049,-0.00778,0.3908,-0.1134,9.7116
1771240813.1979632,0.01188,0.00663,-0.00673,0.5488,0.0015,9.657
1771240813.2438686,0.00679,-0.0062,-0.01039,0.066,0.2683,9.9129
1771240813.2918427,0.00669,-0.00842,-0.0103,0.3379,0.3439,9.8262
1771240813.3418033,0.01155,-0.0143,-0.00796,0.1454,0.5186,9.635
1771240813.3918319,0.00535,-0.00776,-0.0075,0.0052,0.4871,9.7116
1771240813.4429479,0.00912,-0.03539,-0.00493,0.2362,0.9112,9.7736
1771240813.4971578,0.00619,0.01137,-0.00248,0.1818,0.0216,9.7425
1771240813.5444512,0.00384,0.03948,-0.01034,0.534,0.1245,9.8041
1771240813.597138,-0.00026,0.00489,-0.00915,0.4308,0.139,9.8842
1771240813.642104,-0.00778,0.01397,-0.00744,0.4252,-0.0682,9.7716
1771240813.6940367,-0.01388,0.01666,-0.0077,0.6256,0.1074,9.635
1771240813.7471123,-0.01104,-0.00243,-0.0077,0.305,-0.1308,9.6239
1771240813.7966323,-0.01031,0.00388,-0.00844,0.064,-0.0353,9.6805
1771240813.8420222,-0.01269,-0.00373,-0.00809,-0.0866,0.0186,9.9376
1771240813.892338,-0.0158,-4e-05,-0.00527,0.2948,-0.0043,9.8702
1771240813.9422307,-0.01173,0.00967,-0.00558,0.2684,0.017,9.8536
1771240813.9926012,-0.00576,0.00578,-0.00743,0.4416,-0.103,10.0562
1771240814.0470245,-0.00046,-0.01579,-0.00889,0.3081,-0.1542,9.8434
1771240814.0938642,0.00445,-0.01039,-0.0077,0.3149,0.0163,9.5767
1771240814.1438668,0.00347,0.01747,-0.01,0.3858,0.0635,9.6902
1771240814.192522,-0.00049,0.00339,-0.01065,0.2718,0.2889,9.6712
1771240814.2413921,0.00286,0.0003,-0.01441,0.1126,0.1216,10.0192
1771240814.2951198,0.00537,-0.00606,-0.01484,0.2847,-0.3413,9.5521
1771240814.3420658,0.00561,-0.01866,-0.01493,-0.0107,-0.5411,9.7258
1771240814.392301,0.01069,0.0024,-0.01579,0.1975,-0.4969,9.7333
1771240814.4421809,0.00788,0.01122,-0.01841,-0.12,0.1514,9.7672
1771240814.4932666,0.00767,-0.03731,-0.0148,0.0783,-0.1727,9.5774
1771240814.5432556,0.01448,0.03188,-0.01647,0.4871,-0.0206,9.4052
1771240814.598267,0.00782,-0.01326,-0.01969,-0.3947,0.2553,10.019
1771240814.6437535,0.00741,0.00123,-0.02002,0.1717,-0.2358,9.8271
1771240814.6980891,0.00808,-0.01192,-0.02008,0.3634,0.0919,9.9551
1771240814.7453063,0.00498,-0.00515,-0.01727,-0.1133,0.239,9.8117
1771240814.7981277,0.00443,0.00687,-0.01845,0.0844,-0.1085,10.0817
1771240814.8440094,0.00319,0.01737,-0.0208,0.2837,0.2797,9.6357
1771240814.8972902,0.00151,-0.01756,-0.01647,-0.0301,0.333,9.8534
1771240814.951978,0.00189,0.02398,-0.02065,0.275,0.2883,9.9144
1771240814.9996507,0.00648,0.00907,-0.02019,0.1488,0.038,9.8078
1771240815.0477998,0.00024,-0.00629,-0.01849,0.1488,0.1029,9.6923
1771240815.1041152,0.00197,-0.00062,-0.01758,-0.1028,-0.24,9.7639
1771240815.1424885,0.00743,0.03375,-0.02239,0.5293,0.3166,10.0335
1771240815.2057378,-0.00422,-0.02075,-0.01867,0.2864,0.3579,9.8563
1771240815.244469,-0.00307,0.00326,-0.02078,0.1379,0.3013,9.8335
1771240815.3045251,-0.00906,0.00552,-0.02294,0.4021,0.559,9.9285
1771240815.3441846,-0.01662,-0.01395,-0.01964,0.0949,0.384,9.5928
1771240815.392109,-0.01361,-0.00761,-0.02025,0.44,-0.4577,9.8668
1771240815.4465911,-0.0016,-0.00323,-0.02297,0.4303,-0.4382,9.9035
1771240815.4920564,-0.00347,-0.01963,-0.02478,0.105,-0.2947,9.8859
1771240815.544491,-0.00152,0.02196,-0.02519,0.3978,-0.2211,9.9821
1771240815.5917923,0.00456,-0.00201,-0.02341,0.2958,-0.1758,9.6953
1771240815.6436162,0.00463,0.00853,-0.02215,0.2409,-0.2109,9.686
1771240815.6916986,-0.0013,0.01029,-0.0211,0.3975,0.2775,9.5831
1771240815.741981,-0.00073,0.01125,-0.02011,0.397,-0.0751,9.7767
1771240815.7984548,0.0054,-0.00753,-0.02319,0.5026,-0.6806,9.8208
1771240815.8460772,0.0016,0.01212,-0.02379,0.5859,-0.6175,9.7423
1771240815.8942845,0.00353,0.03787,-0.02366,0.7283,-0.3713,9.6145
1771240815.9422245,0.0024,0.02719,-0.02501,0.5157,-0.1771,9.8237
1771240815.99165,0.00639,-0.01057,-0.02221,-0.0367,-0.2169,9.503
1771240816.0446038,0.00375,-0.01317,-0.01903,0.2673,-0.2234,9.5981
1771240816.0927534,0.0054,-0.01949,-0.02227,-0.2702,-0.0233,9.7542
1771240816.142771,0.00438,0.00363,-0.02459,-0.0972,0.0537,10.0612
1771240816.1955373,-0.00205,0.01233,-0.02223,0.3364,0.1282,9.9003
1771240816.2447627,-0.00452,-0.0003,-0.02231,0.0999,0.2127,9.8385
1771240816.2918527,-0.00652,0.01888,-0.02412,-0.1192,0.2627,9.9887
1771240816.3445823,-0.0024,-0.0247,-0.02498,-0.4561,0.4449,9.7126
1771240816.3926682,-0.0013,-0.03164,-0.02317,-0.135,0.1743,9.7415
1771240816.4440718,0.0036,-0.01457,-0.0262,-0.1822,0.164,9.7947
1771240816.4925332,0.00449,-0.02944,-0.02468,-0.4027,0.3182,9.8188
1771240816.5467546,0.00092,0.00964,-0.02022,0.144,0.3363,9.8057
1771240816.5920458,0.00191,-0.01071,-0.02335,0.2977,0.2537,9.7029
1771240816.6456113,0.00048,-0.00974,-0.02425,-0.2041,0.2308,9.8389
1771240816.6919208,0.00311,0.00236,-0.02341,-0.0203,-0.0798,9.8586
1771240816.7421167,0.00524,-0.0057,-0.02167,-0.2863,0.075,9.5669
1771240816.791924,0.00488,0.00336,-0.02146,-0.0905,0.0438,9.8177
1771240816.84506,0.00585,0.01318,-0.0256,-0.0715,-0.066,10.0207
1771240816.8936498,0.00465,-0.00503,-0.02556,-0.3854,-0.1285,9.8681
1771240816.9469554,0.0047,-0.01553,-0.02476,-0.2263,0.0788,9.7454
1771240816.9915934,-0.00034,-0.01549,-0.0228,-0.1997,0.2316,9.6628
1771240817.0440397,-0.00403,0.00422,-0.02024,-0.0871,0.3871,9.6975
1771240817.0981846,-0.0038,0.00797,-0.0192,-0.2539,-0.0018,10.114
1771240817.1478693,-0.00134,-0.00358,-0.02174,-0.264,0.0433,9.7213
1771240817.1923225,-0.00087,-0.02173,-0.02303,0.2994,-0.2774,9.8191
1771240817.250157,0.00244,0.00036,-0.01924,-0.0632,0.0025,9.5629
1771240817.2963865,-0.01009,0.00509,-0.02054,-0.2649,-0.0663,9.95
1771240817.3554208,-0.00701,-0.02174,-0.02215,-0.2918,-0.684,9.6908
1771240817.3921978,0.00458,0.00699,-0.02243,0.1303,-0.6498,10.0166
1771240817.4421427,0.00643,0.01039,-0.0241,0.1376,-0.3547,9.8525
1771240817.4975567,0.00848,-0.02446,-0.02136,-0.2879,-0.226,9.9105
1771240817.5429316,0.00851,-0.01592,-0.0199,-0.1904,-0.2294,9.906
1771240817.5926306,0.013,-0.04959,-0.0202,-0.1107,-0.1264,9.6191
1771240817.643178,0.01638,-0.00766,-0.02042,-0.1324,-0.2121,9.7817
1771240817.6918604,0.01379,0.00858,-0.02238,-0.3237,0.1686,10.1134
1771240817.7420251,0.00576,-0.01582,-0.02143,-0.6961,0.369,10.1141
1771240817.7939548,0.01099,0.03505,-0.02204,0.5845,0.0133,9.6085
1771240817.8438337,0.01023,0.00738,-0.02136,0.0829,0.4951,9.8361
1771240817.8925211,0.00255,-0.0123,-0.02034,-0.2525,0.3535,9.8113
1771240817.9437277,0.00629,-0.02181,-0.01736,-0.0719,0.0749,9.5798
1771240817.9923255,0.00496,0.00816,-0.01759,-0.0178,0.091,9.6794
1771240818.0422692,0.00209,0.01214,-0.02123,-0.2813,0.2436,9.8269
1771240818.0951087,-0.00224,0.006,-0.02146,-0.0272,0.3606,9.6502
1771240818.1448119,-0.0002,0.00095,-0.01832,0.011,0.199,9.8014
1771240818.1929905,0.00321,-0.0177,-0.01834,-0.4407,0.1025,9.9522
1771240818.2420914,-0.00029,-0.02145,-0.0187,-0.3755,0.2202,9.8024
1771240818.2951334,-0.00161,0.01767,-0.0188,0.1923,0.1372,9.7531
1771240818.3446908,-0.00095,0.01979,-0.01721,-0.0189,0.5113,9.7506
1771240818.3982694,-0.00844,0.00857,-0.01431,-0.2168,0.6125,9.8188
1771240818.4439023,-0.01586,-0.01509,-0.0147,-0.3331,0.2087,9.8963
1771240818.4927244,-0.01395,-0.00847,-0.01935,-0.1494,-0.1715,9.7447
1771240818.5417297,-0.00664,-0.01407,-0.01902,-0.2687,-0.2087,9.8827
1771240818.6028445,-0.01353,-0.02651,-0.01412,-0.7818,-0.1914,9.8433
1771240818.6421564,-0.00699,0.01526,-0.01463,0.1892,-0.2519,9.9697
1771240818.6929011,0.00216,-0.02112,-0.01547,-0.052,-0.1521,9.5825
1771240818.7434855,0.00643,0.00172,-0.01855,-0.092,-0.3871,9.7023
1771240818.798848,0.00717,0.00206,-0.01962,-0.0607,-0.1503,9.8512
1771240818.8451574,0.00572,-0.00652,-0.01604,-0.176,0.2413,9.7289
1771240818.8920941,0.0048,0.01801,-0.01464,0.3021,-0.0732,9.7553
1771240818.9449682,0.00725,-0.0206,-0.01527,-0.2262,-0.0535,10.0081
1771240818.9918556,0.00669,-0.0507,-0.01047,-1.0753,-0.291,9.8134
1771240819.0419595,0.00755,-0.00877,-0.0166,-0.6256,-0.041,9.8723
1771240819.0965605,0.00659,0.05586,-0.01759,0.1742,0.5107,9.8261
1771240819.1420977,0.00564,0.0084,-0.0152,-0.0993,0.4385,9.9599
1771240819.1943521,0.00172,-0.00245,-0.01683,-0.1908,0.1005,9.8441
1771240819.2439077,-0.00174,-0.01501,-0.01856,0.1827,0.266,9.6861
1771240819.3010955,-0.00138,-0.01179,-0.01438,-0.103,0.3418,9.9147
1771240819.3441105,-0.00293,0.02229,-0.01378,-0.1285,-0.3314,9.9997
1771240819.403401,0.00175,0.01016,-0.01746,-0.0515,-0.0278,9.709
1771240819.4440718,-0.00195,-0.00361,-0.01617,0.158,0.0094,9.7927
1771240819.5018115,0.00185,-0.00897,-0.017,-0.0391,-0.2103,9.777
1771240819.5419567,0.00511,-0.00551,-0.01549,-0.1393,0.0967,9.8573
1771240819.5955853,-0.00264,-0.00568,-0.01464,-0.3151,0.2384,9.8165
1771240819.6415687,-5e-05,0.01116,-0.01594,0.0584,0.1378,9.7659
1771240819.697434,-0.00172,0.01007,-0.01665,-0.023,0.1424,9.8393
1771240819.7423468,-0.00448,0.00357,-0.01676,-0.0904,-0.1272,9.9003
1771240819.793546,-0.00638,0.00209,-0.01522,0.1132,0.0737,9.8614
1771240819.84375,-0.00601,-0.02655,-0.01382,-0.2165,-0.0992,9.7814
1771240819.893634,-0.00611,0.03249,-0.0151,-0.068,0.0573,9.9616
1771240819.9453688,-0.00461,0.00853,-0.01784,0.1976,0.1781,9.8536
1771240819.9986403,-0.00318,-0.01354,-0.01272,-0.046,0.0272,9.635
1771240820.041908,-0.00099,-0.01041,-0.01329,-0.1281,0.0963,9.8539
1771240820.095703,-0.00386,-0.02343,-0.01456,-0.2161,0.2307,9.5913
1771240820.141747,-0.00504,-0.00804,-0.01449,-0.1435,0.0244,9.9539
1771240820.1918447,-0.00211,-0.00299,-0.01435,-0.1279,-0.187,9.9258
1771240820.2417645,-0.00291,0.0096,-0.01652,0.0326,-0.1413,9.8587
1771240820.2928805,-0.0001,0.00213,-0.01747,0.1799,-0.2757,9.8234
1771240820.34323,0.00236,0.00226,-0.01465,-0.1857,-0.3363,9.6107
1771240820.392049,-0.0001,0.01146,-0.01135,0.061,-0.3504,9.6489
1771240820.4422503,-0.00257,0.01034,-0.01313,0.0749,-0.3062,9.7732
1771240820.4931214,-0.0029,0.00348,-0.01541,-0.0207,0.0169,9.8362
1771240820.5430946,-0.00562,0.01011,-0.01636,0.3083,0.2784,9.6677
1771240820.5923405,-0.00536,-0.00704,-0.01399,-0.1611,0.1562,10.1294
1771240820.6440043,-0.00317,-0.00832,-0.01332,-0.3867,-0.2371,9.8209
1771240820.6917572,-0.00487,-0.00227,-0.01556,-0.0684,0.1769,9.7191
1771240820.7428153,-0.00678,-0.00815,-0.01385,-0.1668,0.2616,9.8041
1771240820.7950675,-0.00787,0.02975,-0.01458,0.156,-0.2091,9.7683
1771240820.8438437,-0.01037,0.02455,-0.01602,0.4655,0.0254,9.7658
1771240820.8967505,-0.00889,0.00513,-0.01342,0.4075,-0.1191,9.7198
1771240820.943701,-0.00292,-0.01466,-0.0146,-0.0774,-0.3367,9.8018
1771240820.9916806,-0.00052,-0.00941,-0.01539,-0.0497,-0.1815,9.7945
1771240821.0470576,3e-05,0.00904,-0.01534,0.2954,0.1089,9.6768
1771240821.0938716,-0.00638,-0.00691,-0.01303,-0.021,0.0021,9.5025
1771240821.1482124,-0.00264,-0.00848,-0.01323,-0.1797,-0.176,9.8131
1771240821.1938722,0.0027,-0.00473,-0.01571,0.326,0.0428,9.99
1771240821.2508342,-0.0008,-0.01045,-0.01217,-0.2823,0.2029,9.7654
1771240821.2977815,-0.00135,0.00059,-0.00754,0.1744,0.2688,9.7731
1771240821.346467,0.00166,-0.01149,-0.00684,-0.0529,0.1689,9.599
1771240821.397093,-0.0026,0.00901,-0.00701,0.0918,0.2911,9.9797
1771240821.4477794,-0.00572,0.00784,-0.00365,0.2625,0.1515,9.9935
1771240821.4974368,-0.00134,-0.01766,-0.00057,0.0683,-0.0929,9.6634
1771240821.554043,0.00543,-0.00882,0.00067,0.1012,-0.0986,9.7277
1771240821.5962877,0.0109,0.00561,0.00242,0.3371,0.1419,9.9267
1771240821.6535785,0.01177,0.00073,0.00434,0.0013,0.2419,9.7862
1771240821.696216,0.01529,0.02544,0.00612,0.4201,-0.153,9.8024
1771240821.7463822,0.01298,0.01614,0.00724,0.2175,0.1124,9.8282
1771240821.7964334,0.01165,-0.00625,0.00864,-0.0151,0.1453,9.8387
1771240821.843577,0.00973,-0.0126,0.00973,-0.0786,0.0779,9.9639
1771240821.8946378,0.00571,0.00399,0.01222,0.0571,0.1149,9.8252
1771240821.9472618,0.00557,-0.00259,0.01386,0.0925,-0.0074,10.0703
1771240821.9936411,0.0092,0.01219,0.01318,0.1815,-0.4476,9.6895
1771240822.051501,0.00802,0.01298,0.00958,0.1765,0.0065,9.9979
1771240822.0949132,0.00327,-0.00418,0.01099,-0.0077,0.019,9.8673
1771240822.1418915,0.0042,0.01456,0.01365,0.2846,-0.1438,9.7396
1771240822.1939929,0.00173,0.00697,0.01628,0.0736,0.1217,9.6991
1771240822.2423327,-0.00241,-0.00399,0.01515,-0.0402,0.1917,9.7597
1771240822.2929702,-0.00516,-0.00874,0.01557,0.1644,0.4859,9.7174
1771240822.3463936,-0.00536,-0.01137,0.01784,0.3001,0.2709,9.7149
1771240822.4002953,-0.00645,0.00869,0.01607,0.3054,0.2088,9.72
1771240822.4424508,-0.00923,-0.01325,0.01607,-0.0689,0.3065,9.7729
1771240822.4919605,-0.01054,-0.01813,0.01883,0.122,0.1489,9.7844
1771240822.5482407,-0.01127,-0.01083,0.02156,-0.0208,0.0842,10.0308
1771240822.594685,-0.00782,0.00609,0.01771,0.3905,-0.0339,9.7708
1771240822.6430135,-0.00548,0.00987,0.01589,0.3021,0.0811,9.606
1771240822.691783,-0.00566,-0.00394,0.02014,0.1046,0.0162,9.925
1771240822.7477582,-0.00515,-0.01152,0.02123,-0.0235,-0.0914,9.9552
1771240822.7942266,-0.00472,-0.01078,0.0202,-0.0659,-0.0478,9.802
1771240822.8471148,-0.00463,-0.00785,0.01825,0.03,0.1817,9.87
1771240822.892151,-0.00985,0.00716,0.01713,0.1793,0.2832,9.8354
1771240822.94558,-0.00982,0.02046,0.02019,0.3195,0.0123,9.6949
1771240822.993819,-0.00705,0.01415,0.02076,0.3244,-0.1148,9.7532
1771240823.0427034,-0.00623,0.0022,0.01899,0.1158,0.0824,9.6593
1771240823.0970674,-0.00728,-0.00083,0.01939,0.2587,0.0607,9.726
1771240823.14397,-0.00529,0.01092,0.02015,0.3238,-0.1522,9.817
1771240823.1955705,-0.00364,-0.00269,0.02199,-0.0801,-0.0448,9.8027
1771240823.247241,-0.00149,-0.01383,0.02014,0.0835,-0.0597,9.7221
1771240823.2954388,0.00096,-0.01703,0.02175,0.3285,-0.2648,9.8657
1771240823.3416612,0.00721,-0.02108,0.02188,0.0709,-0.2313,9.9719
1771240823.393281,0.01278,-0.01919,0.02122,0.0781,-0.2254,9.8515
1771240823.4456642,0.01526,-0.02379,0.01961,-0.0516,-0.0797,9.8364
1771240823.4949803,0.02077,-0.01635,0.02203,0.173,-0.0391,9.8642
1771240823.5429122,0.01664,0.00479,0.01966,0.3048,0.1632,9.9869
1771240823.604889,0.01547,-0.00174,0.01985,0.1546,0.4179,9.9823
1771240823.642943,0.00993,-0.02295,0.02003,0.0212,0.6642,9.7255
1771240823.7114525,0.00431,-0.01688,0.02113,-0.1083,0.643,9.9108
1771240823.7428293,-0.00054,0.00266,0.02172,0.1415,0.5392,9.8813
1771240823.8015635,-0.00298,0.00396,0.02231,0.0143,0.3402,9.8874
1771240823.8421352,-0.00832,-0.00449,0.02083,-0.0529,0.3518,9.7379
1771240823.8934863,-0.00805,0.03493,0.02004,0.2553,0.6495,10.0542
1771240823.9427073,-0.01123,-0.04295,0.02284,-0.117,-0.3257,9.6199
1771240823.9936004,0.00519,0.00377,0.02794,0.6757,-0.9907,9.5388
1771240824.042783,0.01158,0.03946,0.01639,0.2728,0.0258,9.8171
1771240824.1001718,0.00667,-0.00387,0.01517,-0.1442,0.2926,9.834
1771240824.1437793,0.0113,-0.0298,0.02376,0.1211,0.1496,9.7085
1771240824.191698,0.00744,0.01754,0.02403,0.3312,0.2503,9.496
1771240824.2512555,0.00429,-0.00942,0.01993,0.1084,0.0204,10.0788
1771240824.2974308,0.00714,0.00729,0.01783,-0.2827,0.0029,10.0613
1771240824.3425777,-0.00451,0.00303,0.01785,-0.2519,0.4536,9.7813
1771240824.3938818,-0.00974,0.00283,0.01801,0.2125,0.2219,9.8857
1771240824.4427848,-0.01365,0.01932,0.01961,0.8264,0.5039,9.5085
1771240824.4918842,-0.01123,0.02335,0.01893,0.2512,0.378,9.6223
1771240824.5434968,-0.01265,0.02973,0.01801,0.1299,0.7011,9.8728
1771240824.6495488,-0.01955,-0.02502,0.01938,-0.2107,0.7568,10.1696
1771240824.6560228,-0.01824,-0.03103,0.02395,-0.1686,0.511,9.5305
1771240824.6915066,-0.01813,0.00266,0.02153,0.5379,0.4688,9.7203
1771240824.742155,-0.02482,-0.05288,0.02196,-0.6818,0.0731,9.8381
1771240824.7928903,-0.0089,-0.04944,0.02789,0.9473,-0.6858,9.7226
1771240824.8425853,0.01015,0.09456,0.02713,0.3195,-0.8904,9.5488
1771240824.8938975,0.01069,0.08309,0.01471,1.2105,-0.6558,10.1226
1771240824.947518,0.0198,-0.02264,0.01815,0.1401,-0.5445,9.8198
1771240824.992493,0.02079,-0.00639,0.02609,0.4694,0.0818,9.7502
1771240825.0436525,0.01122,0.0086,0.02872,1.1191,-0.2238,9.7304
1771240825.093978,0.0119,0.00019,0.02127,-0.3525,-0.4021,10.1599
1771240825.1430383,0.00884,-0.0169,0.0184,-0.0277,-0.1143,9.7798
1771240825.1922987,-0.00317,0.00819,0.01834,0.2618,0.3607,9.8793
1771240825.2509122,-0.00798,-0.00753,0.0251,0.1075,0.0578,9.6299
1771240825.3041494,-0.01116,0.01795,0.02462,0.3006,0.4132,9.9186
1771240825.3438668,-0.01646,0.01178,0.01948,0.2642,0.271,10.0113
1771240825.3919609,-0.01021,0.01403,0.02374,-0.1842,-0.2148,9.8711
1771240825.4448915,0.00419,0.02804,0.0268,0.3631,-0.1095,9.4829
1771240825.4919703,-0.00427,0.01689,0.02368,0.1995,0.1518,9.6429
1771240825.5454335,0.0058,0.00349,0.02237,-0.0377,-0.0697,9.857
1771240825.597793,0.00776,-0.01069,0.0252,0.2241,0.2773,9.9606
1771240825.647445,0.00285,-0.01479,0.02655,0.3674,0.034,9.7178
1771240825.6960087,0.00755,0.00153,0.02042,0.4747,-0.0141,10.0094
1771240825.747916,-0.0021,0.00729,0.01983,0.5688,0.4518,9.8314
1771240825.7971923,0.00275,-0.01824,0.02395,0.1144,0.0738,9.8541
1771240825.855291,-0.00116,0.01978,0.02344,0.1701,0.1156,9.8301
1771240825.8981311,-0.00544,-0.00578,0.02424,-0.0219,0.1838,9.6261
1771240825.9561932,-0.00184,0.00077,0.0269,0.0224,-0.341,9.642
1771240825.992485,-0.00115,-0.00656,0.02379,-0.0148,-0.048,9.7266
1771240826.044584,-0.00031,0.02067,0.01648,0.0665,-0.1312,10.0394
1771240826.0928617,-0.00094,0.01635,0.01463,0.2771,0.5808,9.5276
1771240826.1428368,0.01072,0.05922,0.01549,0.8269,-0.0085,9.7659
1771240826.1923108,-0.0025,-0.08285,0.02927,-0.8127,1.2229,9.0707
1771240826.2422876,-0.00086,-0.02671,0.03366,0.5807,0.0548,9.3952
1771240826.2922742,0.00923,0.03607,0.02473,0.4901,0.4535,9.9037
1771240826.3448975,-0.00013,0.02963,0.01499,0.0457,0.5467,10.1939
1771240826.395586,-0.00041,-0.04578,0.02433,0.074,-0.2603,10.1528
1771240826.441296,0.00025,-0.00323,0.02678,0.3581,-0.0564,9.6049
1771240826.4949012,-0.00234,-0.0118,0.02413,-0.1313,0.2805,9.6773
1771240826.543073,-0.00947,-0.01094,0.02511,-0.2422,0.4579,9.689
1771240826.5917547,-0.01427,-0.00711,0.02405,0.4546,0.1556,9.6286
1771240826.6421497,-0.00601,0.00261,0.023,0.4994,-0.0763,9.7895
1771240826.6917593,-0.00417,0.007,0.02373,0.0292,-0.0669,10.2013
1771240826.7429087,-0.00738,-0.01382,0.02456,0.0553,0.0003,10.2519
1771240826.7931807,0.00097,0.01363,0.02483,0.4134,-0.1793,9.7795
1771240826.8414257,0.00777,0.01322,0.02323,0.5136,-0.089,9.6707
1771240826.8940036,0.01115,-0.0007,0.0233,-0.2077,-0.0469,9.7818
1771240826.9464414,0.00762,-0.01232,0.02555,0.7106,-0.2273,9.6642
1771240826.9969645,0.0063,-0.01912,0.02626,0.0425,0.2314,9.5275
1771240827.0418787,0.0088,0.00344,0.02468,0.1152,0.0177,9.7045
1771240827.0947287,0.00682,-0.00864,0.02407,-0.236,0.229,10.2789
1771240827.1425254,0.00889,-0.00189,0.02098,0.2914,0.0438,9.728
1771240827.1940022,0.01138,0.00143,0.02468,0.057,0.0569,9.729
1771240827.242537,0.00079,-0.00097,0.02542,-0.2961,0.6888,9.6899
1771240827.3015153,0.00187,-0.01153,0.02617,0.5132,0.0704,9.6345
1771240827.3425586,0.00773,0.01157,0.02238,-0.0891,0.1294,9.9887
1771240827.3919766,0.00173,-0.03216,0.0176,-0.1238,0.4442,10.0385
1771240827.4438732,-0.00447,-0.01448,0.01294,0.0985,0.0706,9.6296
1771240827.4986575,-0.00409,-0.0015,0.01043,0.2618,-0.0306,9.6746
1771240827.5436928,0.00019,0.01591,0.00805,0.2198,-0.4771,9.9827
1771240827.593452,0.00074,-0.03204,0.00795,-0.3247,-0.3388,9.9448
1771240827.644964,0.00176,0.03625,0.00847,0.7694,-0.565,9.8636
1771240827.696227,-0.00315,0.02394,0.00411,0.307,-0.0985,10.2155
1771240827.7445447,-0.00481,0.0087,0.00464,0.1016,-0.3718,9.9107
1771240827.7963889,-0.00173,-0.02002,-0.00012,0.7642,-0.2332,9.6277
1771240827.8420436,-0.00981,-0.01143,0.00746,-0.3587,0.0654,10.1167
1771240827.8993263,-0.0081,-0.03179,0.00876,-0.0459,0.2973,9.5577
1771240827.9421046,-0.00561,-0.01455,0.00759,0.2828,0.014,9.9687
1771240828.0059245,-0.00189,-0.04182,0.00819,0.6185,-0.4963,9.6162
1771240828.0465996,0.01015,0.00889,0.00702,-0.8055,-0.1346,9.6346
1771240828.1025567,0.00416,-0.00056,0.00439,0.1864,0.5692,10.0239
1771240828.1437502,-0.00287,0.0312,0.00891,0.0082,0.0711,9.6455
1771240828.200016,0.00102,0.03556,0.0065,0.7082,-0.1919,9.7931
1771240828.2443411,-0.00353,0.00284,0.00738,-0.2273,0.2377,9.7054
1771240828.291307,-0.00769,-0.00647,0.00655,0.5901,0.4219,9.6131
1771240828.3479068,0.00236,0.02122,0.00361,0.7237,-0.0438,9.9127
1771240828.395927,0.0089,-0.0309,0.00512,0.2683,0.2948,9.7216
1771240828.4425,0.00804,0.01651,0.00811,-0.4664,0.5806,10.1061
1771240828.4994736,0.01273,0.00851,0.00602,-0.5329,0.4297,9.8797
1771240828.5439188,0.00452,0.03522,0.00797,0.7359,0.6405,9.7311
1771240828.5979455,-0.00434,0.00611,0.00306,0.0109,0.5038,9.8031
1771240828.6447856,-0.00631,0.00092,-0.00198,0.3833,0.3471,9.577
1771240828.6942275,-0.00746,0.00466,0.00255,0.2545,-0.0194,9.9693
1771240828.743853,-0.00162,0.00467,0.00413,-0.1151,0.5428,9.5145
1771240828.7917218,-0.00162,0.01103,-0.00143,0.2876,-0.0234,9.7239
1771240828.8424137,0.01348,-0.01395,-0.0055,-0.0235,-0.0622,10.0209
1771240828.8917692,-0.0011,0.00311,-0.00235,-0.2216,0.0,10.1341
1771240828.943463,-0.00376,0.04487,-0.00391,0.5671,-0.2987,10.1204
1771240828.9998944,-0.00968,-0.00556,0.00082,0.5213,0.4042,9.481
1771240829.0455108,-0.01723,0.01038,-0.00145,0.49,0.159,9.9885
1771240829.09926,-0.01285,-0.00232,-0.00874,-0.4441,-0.7032,10.0321
1771240829.148108,-0.00439,0.01108,-0.00561,0.6742,-0.2874,9.5455
1771240829.1927097,-0.00505,-0.00033,-0.00096,-0.2011,0.2125,9.9161
1771240829.250492,-0.01134,-0.0084,-0.00134,-0.2858,-0.1798,9.9425
1771240829.2986155,-0.00164,0.02956,0.00104,0.3741,-0.3168,9.9098
1771240829.3428578,-0.00631,0.03889,0.00243,0.348,0.5714,9.5565
1771240829.3943815,-0.00709,-0.04829,0.00245,0.4122,-0.4332,9.7347
1771240829.443055,0.00488,0.01178,-0.00213,-0.5387,-0.4237,9.8993
1771240829.49196,-0.00854,0.0059,-0.0033,-0.2834,0.4222,9.9021
1771240829.5434475,-0.00411,-0.01933,0.00321,-0.1584,-0.3161,9.7672
1771240829.5937018,0.00212,0.00805,0.00251,0.0128,-0.3914,9.7181
1771240829.6469674,0.00176,-0.00048,-0.00198,-0.1225,-0.1835,10.1188
1771240829.6926172,-0.0027,-0.00376,-0.00395,-0.1314,-0.0302,9.9375
1771240829.7450838,-0.00349,-0.01958,-0.00233,0.4003,-0.467,9.7813
1771240829.794302,0.01074,0.00318,-0.0028,0.0858,-0.9082,9.969
1771240829.8472066,0.00791,-0.00355,-0.00805,-0.1545,-0.3382,9.5809
1771240829.8981268,0.00151,-0.00536,-0.00485,-0.0369,-0.416,9.8008
1771240829.9499712,0.00245,-0.00067,-0.00477,0.3078,-0.4827,10.1247
1771240829.9912136,-0.00344,-0.015,-0.0008,-0.5022,0.0454,10.0208
1771240830.048608,-0.00434,0.02092,-0.00163,0.4505,-0.5327,9.8412
1771240830.0958114,-0.00836,0.02616,-0.00609,0.4859,-0.5105,10.1181
1771240830.1561332,-0.01119,0.00339,-0.00507,-0.5611,-0.665,9.9078
1771240830.1915028,-0.00628,0.00907,-0.00792,0.0311,-0.7961,9.8875
1771240830.2614481,-0.0081,0.00289,-0.0088,0.3844,-0.1941,9.5132
1771240830.2932854,-0.00632,-0.00746,-0.00432,-0.13,-0.6793,9.6457
1771240830.3608491,-0.00388,-0.01357,-0.00036,0.1126,0.0235,9.8564
1771240830.397401,-0.00278,-0.02026,-0.00135,-0.1772,0.3296,9.9971
1771240830.4422846,0.00444,-0.00943,-0.00572,0.1022,0.2178,9.7771
1771240830.4930906,0.00403,0.00684,-0.00467,0.1018,-0.1076,9.8949
1771240830.5439193,0.00863,0.01317,-0.00272,-0.3032,-0.1826,9.7162
1771240830.5918686,0.00022,-3e-05,-0.00402,0.0629,0.1627,9.6679
1771240830.6421797,0.00556,-0.01054,-0.00016,-0.0817,-0.1389,9.8674
1771240830.69608,0.0052,-0.01032,-0.00588,-0.0087,0.1309,9.7465
1771240830.7432506,-0.015,-8e-05,-0.00359,-0.1538,0.6505,9.9586
1771240830.793065,-0.01546,0.02645,-0.01406,-0.0011,-0.3997,9.8521
1771240830.8442156,-0.00451,0.01395,-0.01854,0.1647,-0.364,9.9829
1771240830.9016254,-0.00394,-0.00122,-0.01908,0.0384,-0.2283,9.8543
1771240830.9477825,-0.00254,0.0159,-0.01603,0.2447,-0.2827,9.6376
1771240830.9913476,0.00376,0.01368,-0.01521,-0.4115,-0.1795,9.9742
1771240831.045311,0.00098,-0.00155,-0.01935,0.0448,0.0755,9.8157
1771240831.0917456,0.00498,0.00514,-0.02029,0.4006,-0.3472,9.8457
1771240831.1431305,0.00692,-0.03429,-0.01846,0.1335,-0.1015,9.9718
1771240831.1994958,0.00109,0.00075,-0.01611,-0.3966,-0.106,9.7721
1771240831.2448707,0.00294,-0.01394,-0.01412,-0.47,-0.1727,10.1373
1771240831.2918274,0.00261,-0.00148,-0.01893,-0.0522,0.0165,9.7667
1771240831.3432987,-0.00152,0.00955,-0.02017,0.1578,-0.0292,9.7016
1771240831.3945422,-0.00262,0.01275,-0.01589,-0.1864,0.1687,9.813
1771240831.4415905,-0.0103,0.00292,-0.01884,-0.0687,0.2178,9.7561
1771240831.4921331,-0.00874,-0.01162,-0.01708,0.3563,-0.2702,9.8016
1771240831.5425403,-0.0033,0.01982,-0.01733,0.2531,-0.308,9.6519
1771240831.5932713,0.00036,-0.00991,-0.01707,-0.3222,-0.1914,10.0873
1771240831.6420803,0.01616,0.01351,-0.02028,-0.0115,-0.7168,9.7154
1771240831.694064,0.01199,0.01224,-0.02151,-0.0128,0.3595,9.6824
1771240831.7450595,-0.0019,-0.04396,-0.01805,-0.4035,-0.0905,9.9111
1771240831.793088,-0.00208,0.00675,-0.01897,0.5193,-0.031,9.8465
1771240831.842008,-0.00334,-0.00948,-0.0194,0.108,0.0844,9.6077
1771240831.8965497,-0.00934,0.00153,-0.02114,-0.3682,0.3901,10.0807
1771240831.9414299,-0.01236,-0.00599,-0.0158,0.3162,-0.0867,9.9903
1771240831.9944742,-0.00095,0.0239,-0.01471,0.2715,-0.2069,9.7255
1771240832.0460167,-0.00569,0.019,-0.01618,0.0087,-0.2326,9.735
1771240832.099066,0.0017,0.00842,-0.01844,0.0954,-0.795,9.9485
1771240832.142292,0.00015,0.00572,-0.01954,0.3423,-0.2828,9.5323
1771240832.1989892,-0.00389,0.01189,-0.01587,0.3266,-0.2319,9.5246
1771240832.2431567,0.00398,0.00153,-0.01701,-0.3145,-0.4973,9.9957
1771240832.3059385,0.00426,-0.03197,-0.02031,-0.3936,-0.4463,9.7927
1771240832.3418868,0.01195,-0.00962,-0.01915,0.4547,-0.371,9.4864
1771240832.3914025,0.00684,0.00371,-0.02316,-0.1058,0.2926,9.7815
1771240832.4450138,-0.00394,0.00029,-0.0158,-0.1708,-0.1333,9.9897
1771240832.4915805,-0.0022,-0.00498,-0.01431,-0.0303,-0.4324,9.9062
1771240832.5423582,-0.00247,0.01178,-0.02048,0.2566,-0.0371,9.9062
1771240832.5917997,-0.00115,-0.00256,-0.02221,-0.1221,-0.0301,9.6216
1771240832.650373,-0.00431,-0.0162,-0.02045,0.0568,-0.1042,9.894
1771240832.6926725,-0.0001,-0.00242,-0.0197,0.1878,-0.2384,9.9031
1771240832.746522,0.00713,-0.0114,-0.02117,-0.1066,-0.2232,9.8643
1771240832.7992513,0.00334,-0.03305,-0.01678,-0.4807,-0.1613,10.142
1771240832.842338,0.00095,-0.00873,-0.01644,0.1326,0.2512,9.7757
1771240832.8963642,-0.0035,-0.00996,-0.01649,-0.1012,0.0336,10.0022
1771240832.9457636,-0.00426,0.00373,-0.01429,-0.2109,-0.476,9.883
1771240832.991325,0.00024,-0.01238,-0.01886,0.0599,-0.2438,9.4795
1771240833.0416687,-0.00502,-0.03101,-0.02076,0.0326,-0.1392,9.8128
1771240833.0920432,0.00175,-0.0078,-0.01981,-0.3055,-0.2937,9.7701
1771240833.1444194,0.0014,-0.01644,-0.02127,-0.3932,0.1429,9.9275
1771240833.19784,0.00333,-0.00675,-0.01594,0.1321,0.0764,9.4661
1771240833.242046,0.00097,-0.00955,-0.01797,-0.1269,0.0096,9.4707
1771240833.2946482,0.00522,-0.0018,-0.01993,-0.1526,-0.0695,9.9179
1771240833.3426297,0.0076,-0.00995,-0.0173,0.0154,0.1556,9.708
1771240833.3957958,-0.00151,-0.0037,-0.01668,0.0068,0.4949,9.6746
1771240833.441644,-0.00543,0.02254,-0.01731,-0.0098,0.1379,9.9357
1771240833.5000076,-0.00999,0.00877,-0.01674,-0.1054,0.4659,9.8403
1771240833.54316,-0.00451,-0.00659,-0.01764,0.2018,-0.1973,9.7862
1771240833.5949183,-0.00297,-0.00725,-0.0202,-0.1452,-0.0679,9.7348
1771240833.6455164,-0.01059,-0.00895,-0.01775,-0.4433,0.3045,9.9825
1771240833.6921515,-0.0059,-0.00926,-0.01717,0.1388,0.2871,9.766
1771240833.7416363,-0.00456,-0.00115,-0.01291,0.0531,0.2048,9.7733
1771240833.7939796,-0.00037,0.00496,-0.01371,0.1102,-0.2959,9.954
1771240833.8419528,0.00742,-0.0017,-0.01543,0.2568,-0.1525,9.8881
1771240833.8965623,0.00305,-0.00226,-0.01185,0.1118,0.3071,9.6807
1771240833.9479125,0.00266,-0.01026,-0.00713,0.0092,-0.1074,9.7053
1771240833.9922154,-0.00871,0.0217,-0.00563,0.1056,0.1191,9.6763
1771240834.0456705,-0.01298,-0.00616,-0.0066,-0.1164,-0.2704,9.777
1771240834.0934122,-0.01442,0.0161,-0.00729,-0.0251,-0.1946,9.8554
1771240834.1453865,-0.01186,0.02635,-0.00523,0.1293,-0.4154,9.7995
1771240834.1973164,-0.00363,-0.00408,0.0012,0.0631,-0.3032,9.9633
1771240834.2467453,0.00588,-0.00409,0.0039,-0.3061,-0.2681,9.3074
1771240834.2916453,0.00689,0.01761,0.00506,-0.0527,-0.006,9.898
1771240834.3528035,0.00669,0.01133,0.00705,0.0176,0.1326,9.8488
1771240834.3915608,0.00734,-0.00436,0.01081,0.1172,0.0786,9.5544
1771240834.4513469,0.00701,-0.00467,0.01144,-0.0749,0.1856,9.8361
1771240834.4941719,0.00818,-0.01,0.01185,-0.3676,0.4905,9.6979
1771240834.542514,0.00341,-0.01687,0.01517,-0.4851,0.4008,9.9752
1771240834.5966325,0.00247,0.00571,0.01522,0.0044,0.353,9.4331
1771240834.6426063,-0.00736,0.00096,0.01276,0.1042,0.3453,9.6929
1771240834.6930327,-0.00826,0.02326,0.01528,0.4835,0.1974,9.973
1771240834.743027,-0.00663,-0.02089,0.01513,-0.2997,0.2803,9.8638
1771240834.7964354,-0.00811,-0.0217,0.01378,-0.0322,0.1886,9.8187
1771240834.8436658,-0.00012,-0.02131,0.01383,-0.3277,-0.1115,9.8737
1771240834.892813,-0.00159,-0.01957,0.01423,-0.2669,0.0144,9.8292
1771240834.9421382,-0.00122,0.00112,0.01326,0.2329,-0.3375,9.6586
1771240834.99345,-1e-05,0.02801,0.01191,0.141,0.0102,9.9852
1771240835.0422664,-0.00723,0.01427,0.00852,0.4117,-0.3303,9.7929
1771240835.0995502,0.00373,0.01085,0.01525,0.0547,-0.3447,9.6679
1771240835.1426234,0.00265,-0.01434,0.01491,-0.334,-0.2582,9.7666
1771240835.1967473,0.0014,-0.01239,0.00987,-0.0381,-0.2959,9.8428
1771240835.242883,-0.00378,0.01351,0.01094,0.3024,-0.1702,9.8235
1771240835.2923825,-0.00332,0.00455,0.01221,0.036,-0.1852,9.7807
1771240835.35183,-0.00255,-0.00021,0.01315,-0.208,-0.195,9.8072
1771240835.3934054,-0.00082,-0.00695,0.01075,0.3595,0.0017,9.9402
1771240835.442617,0.00121,-0.00746,0.01429,0.3418,-0.2552,9.6529
1771240835.4913797,0.00954,-0.00437,0.0127,-0.0596,-0.4454,9.7492
1771240835.5426102,0.00569,0.00322,0.01251,0.0733,-0.231,9.9631
1771240835.591961,0.00761,-0.00887,0.01565,0.0662,-0.2919,9.7321
1771240835.6420207,0.01182,-0.00025,0.01505,0.1154,-0.1669,9.9348
1771240835.699178,0.00645,-0.00351,0.0123,-0.0255,-0.0954,9.7877
1771240835.7417777,0.01348,-0.0056,0.01304,0.1545,-0.3219,9.6421
1771240835.794615,0.01177,-0.00848,0.0122,0.2143,-0.0048,9.7075
1771240835.8432744,0.0027,0.00307,0.01118,0.1271,-0.3233,9.6742
1771240835.8934844,0.00465,0.01244,0.0116,0.0845,0.1065,9.6808
1771240835.942493,7e-05,-0.00332,0.00948,0.0461,0.2937,9.9574
1771240835.9941285,-0.00056,-0.03976,0.0103,-0.2717,-0.0341,9.9024
1771240836.0415568,0.00261,-0.00614,0.00633,-0.0622,-0.3885,9.8443
1771240836.0943153,0.00065,0.00158,0.00632,0.0239,-0.0967,9.8317
1771240836.1423182,-0.00071,0.01099,0.00642,0.0701,-0.1408,9.7512
1771240836.1930277,-0.00051,0.01749,0.00331,0.5323,-0.271,9.7029
1771240836.241931,-0.00536,0.01304,0.00237,0.3655,0.2573,9.9514
1771240836.2996182,0.00211,-0.01059,0.00276,-0.3424,-0.5302,9.9351
1771240836.344515,0.0008,-0.02672,-0.00091,-0.328,-0.1948,9.7908
1771240836.3988452,0.0037,0.00576,-0.00511,0.4347,-0.3902,9.5878
1771240836.4438334,0.00871,0.0031,-0.00548,-0.0976,-0.1215,9.6659
1771240836.4997597,0.00419,0.00073,-0.00333,0.1779,-0.0664,9.8946
1771240836.5430768,0.00336,-0.00625,-0.00199,0.1721,-0.0914,9.7977
1771240836.6019273,0.00383,0.01302,-0.00537,0.2396,-0.1269,9.8439
1771240836.6448712,-0.00101,0.00794,-0.0069,0.0503,-0.0788,9.8707
1771240836.6924598,0.0031,-0.0028,-0.0056,-0.1059,0.1116,9.8881
1771240836.7452168,-0.00835,0.00908,-0.0022,0.1325,0.059,9.6618
1771240836.7947876,8e-05,0.01721,-0.00373,0.5143,0.0015,9.5276
1771240836.8473392,0.00087,0.00618,-0.00268,0.1452,0.1338,10.0887
1771240836.891932,-0.0049,0.0038,-0.00757,-0.1514,0.2154,9.9712
1771240836.9422965,-0.00328,-0.0135,-0.00683,-0.1207,0.132,9.9124
1771240836.9917562,0.00159,0.01098,-0.00666,-0.0526,-0.2445,9.7592
1771240837.0422978,0.00285,0.01965,-0.01022,0.1974,-0.2485,9.9837
1771240837.0933022,0.00083,0.00018,-0.01,-0.2039,-0.1602,9.7114
1771240837.1427712,-0.00036,0.00635,-0.01165,0.3753,0.0796,9.6756
1771240837.1915135,0.00127,-0.00755,-0.01278,0.1489,-0.1331,9.7638
1771240837.2421198,0.00633,-0.03486,-0.00988,-0.3903,-0.3874,9.8502
1771240837.2951224,0.01451,-0.00598,-0.01621,0.4523,-0.0738,9.6059
1771240837.3507009,0.00871,-0.03179,-0.0162,-0.2591,0.2604,9.6751
1771240837.3918948,0.00236,0.02789,-0.00892,0.2042,-0.1579,9.825
1771240837.4425013,-0.00144,0.00529,-0.01121,0.1688,0.3049,9.6414
1771240837.4925358,-0.00375,-0.01299,-0.01403,0.0455,0.1134,9.99
1771240837.5432696,-0.00348,0.00317,-0.01348,0.0403,-0.1645,9.8272
1771240837.5961528,0.00335,0.02174,-0.01455,0.3861,-0.2897,9.9478
1771240837.642185,0.00709,0.0014,-0.01075,0.2013,-0.176,9.6579
1771240837.6920536,0.01012,-0.00889,-0.01065,-0.2881,-0.4918,9.7208
1771240837.742042,0.01447,-0.00292,-0.01211,-0.2562,-0.0039,10.0014
1771240837.7944634,0.00721,6e-05,-0.01629,0.4513,0.4421,9.4715
1771240837.8413398,-0.0021,-0.00303,-0.01323,-0.0535,0.0515,9.9422
1771240837.8920748,0.00469,-0.01627,-0.01368,0.232,-0.4089,9.6718
1771240837.944767,0.00851,0.00145,-0.0162,0.399,0.1137,9.8701
1771240837.99307,0.00031,0.00511,-0.01429,-0.0469,0.157,9.6566
1771240838.0434668,0.00153,-0.00067,-0.01532,0.1268,0.197,9.9185
1771240838.092308,-0.00605,0.00215,-0.01368,0.0973,0.1248,9.6771
1771240838.1415148,-0.00279,0.01311,-0.01184,0.351,-0.4817,9.668
1771240838.1947405,-0.00438,0.02131,-0.01792,0.3586,0.1104,9.9286
1771240838.2466059,-0.0059,-0.00551,-0.01643,-0.2317,0.2716,9.8269
1771240838.2948906,-0.0055,0.00474,-0.00988,0.0419,0.1557,9.9997
1771240838.3437085,-0.00835,0.02725,-0.01013,0.4322,0.3893,9.5585
1771240838.3919733,-0.00705,0.00129,-0.01063,-0.0734,-0.1708,9.779
1771240838.4487486,-0.00144,0.05097,-0.01611,0.4495,-0.5785,9.7441
1771240838.4971976,-0.00567,-0.00077,-0.0155,0.0572,-0.0881,9.9454
1771240838.5488794,-0.00048,0.00976,-0.01123,0.1586,-0.6056,10.049
1771240838.5923479,-0.00107,0.00035,-0.01393,-0.162,-0.3325,9.6635
1771240838.6617393,0.00141,0.03094,-0.01645,0.1091,-0.3476,9.9229
1771240838.6952128,0.00251,0.00189,-0.01773,0.1045,-0.0772,9.9972
1771240838.752079,-0.00395,0.00166,-0.01824,0.3993,-0.0547,9.5024
1771240838.7941256,-0.00504,0.00634,-0.01578,0.1834,-0.3726,9.8672
1771240838.8416302,0.00278,-0.00413,-0.01242,-0.0603,-0.5295,9.8705
1771240838.8938334,0.00605,-0.00338,-0.01672,0.1685,-0.4638,9.7342
1771240838.948465,0.00812,0.02511,-0.01617,0.1917,-0.4684,9.7763
1771240838.9926295,0.00095,0.00973,-0.01271,0.0042,-0.0724,9.6656
1771240839.0435271,0.00195,0.00643,-0.01502,0.0816,-0.204,9.8307
1771240839.0923915,0.00244,-0.01507,-0.01527,0.0016,-0.4658,9.8764
1771240839.1414595,0.00459,-0.00435,-0.01718,-0.0614,-0.1634,9.7003
1771240839.1935165,0.00499,-0.00689,-0.01775,0.0104,-0.0527,9.9553
1771240839.2445853,0.00357,-0.01243,-0.01324,-0.2725,-0.0479,10.0951
1771240839.292235,3e-05,-0.01387,-0.0127,-0.068,-0.1136,9.5892
1771240839.343626,-0.00126,-0.0016,-0.01398,0.1138,0.1989,9.7871
1771240839.3942502,-0.00168,-0.01039,-0.01184,-0.2077,0.2168,9.801
1771240839.441674,-0.00743,-0.0126,-0.01303,-0.2274,0.051,9.9518
1771240839.4918833,-0.00077,0.00232,-0.01471,0.0464,-0.1939,9.8607
1771240839.5415468,-0.00248,0.01157,-0.01548,0.1837,0.4049,9.6055
1771240839.5925727,-0.00491,0.00106,-0.01134,-0.0425,-0.1148,9.7932
1771240839.6479104,-0.00099,-0.00712,-0.01062,-0.0852,0.253,9.6663
1771240839.6926868,-0.00517,-0.00375,-0.01057,-0.0502,0.3125,9.9507
1771240839.7449563,-0.00541,0.00254,-0.00707,-0.1642,-0.0232,9.9165
1771240839.7936003,0.00281,-0.04056,-0.00778,-0.2164,-0.3654,9.9355
1771240839.8418105,0.00814,-0.01536,-0.00688,0.0415,-0.2409,9.6152
1771240839.8918052,0.0092,-0.00469,-0.00183,-0.2665,0.0998,9.9433
1771240839.9415724,0.00394,-0.02029,0.00457,-0.121,0.252,9.9154
1771240839.9928455,0.00109,-0.02233,0.00727,0.1144,0.2009,9.6393
1771240840.0417373,0.00747,-0.00157,0.00283,0.0673,0.0656,9.7855
1771240840.0955763,-0.00071,0.00663,0.00203,0.153,0.3824,10.0283
1771240840.1460328,-0.00829,-0.03146,0.00364,-0.2021,0.2569,9.7874
1771240840.191775,-0.00605,0.00181,0.01055,-0.0849,0.2043,9.9279
1771240840.2417953,-0.00986,-0.01234,0.0128,-0.2062,0.0351,9.9656
1771240840.2995658,-0.00327,-0.00787,0.00985,0.0331,-0.3644,9.7274
1771240840.347059,-0.00464,0.01348,0.00932,0.2976,0.0586,9.7435
1771240840.391712,-0.00645,-0.00172,0.01,0.3476,-0.0626,9.7754
1771240840.4465806,0.00316,0.00964,0.01312,0.078,-0.6461,9.7023
1771240840.4962757,0.00336,0.00911,0.01249,0.0415,-0.5537,9.7529
1771240840.5565622,0.00619,0.00389,0.01168,0.2801,-0.2277,9.723
1771240840.5961223,0.01249,-0.01114,0.01088,0.1258,-0.2172,9.5065
1771240840.6426027,0.00656,-0.00788,0.00998,-0.0425,0.142,9.7749
1771240840.7019544,0.00046,-0.00842,0.00999,-0.134,-0.138,9.8658
1771240840.7452137,0.00304,0.00862,0.0077,0.4074,0.0094,9.8789
1771240840.8000402,0.00353,-0.00259,0.00713,0.2783,0.1888,9.7164
1771240840.841165,0.00236,0.01005,0.00787,0.0551,-0.0082,9.7985
1771240840.9045746,0.00225,-0.01385,0.00652,0.0485,0.3414,9.8398
1771240840.9416602,-0.00024,-0.02253,0.01307,-0.3473,0.1538,9.7047
1771240840.9918697,0.00556,-0.00063,0.01293,-0.0927,-0.1866,9.9316
1771240841.0462275,0.00293,0.02693,0.00687,0.2106,0.2543,9.9099
1771240841.1715562,0.00083,0.01721,0.00495,0.445,0.2393,9.7957
1771240841.1718726,0.00754,0.00458,0.01059,0.1842,0.2194,9.8634
1771240841.196198,-0.00146,-0.01207,0.01219,-0.1926,0.0317,9.7594
1771240841.2423258,-0.00095,0.01037,0.01287,0.2729,0.1561,9.894
1771240841.2918975,0.00069,0.0076,0.01122,0.1832,0.3068,9.527
1771240841.3421364,-0.00336,0.01436,0.01172,0.0824,-0.1003,9.9244
1771240841.40495,0.00307,0.02215,0.00929,0.1351,-0.5909,9.8435
1771240841.4429793,0.00485,-0.03052,0.0087,-0.0625,-0.0647,9.6743
1771240841.4959671,0.00487,-0.02489,0.00954,-0.1554,-0.4029,9.5592
1771240841.5422897,0.01175,0.00349,0.00885,0.0612,0.2222,10.0339
1771240841.592325,0.00812,-0.01006,0.00716,-0.2128,0.4084,9.9504
1771240841.6420777,0.00375,0.00959,0.01038,0.1845,0.3393,9.7312
1771240841.6977577,0.0017,-0.00665,0.01031,0.0019,0.539,9.7124
1771240841.7421837,0.00148,0.00777,0.00849,-0.0739,0.4271,9.517
1771240841.7916024,-0.00563,-0.0004,0.00734,0.1842,0.4879,9.8462
1771240841.8433137,-0.00964,-0.01427,0.00801,-0.101,0.2382,9.8302
1771240841.8998926,-0.00334,0.01529,0.01307,0.2339,0.1734,9.721
1771240841.9462912,0.00267,0.01488,0.0102,-0.0422,0.2037,9.606
1771240841.991277,0.00588,-0.00465,0.00866,-0.0921,-0.1115,9.7465
1771240842.0423238,0.00551,0.01692,0.01037,0.1081,0.2016,9.958
1771240842.0941236,0.00252,0.00195,0.00952,0.2542,0.1003,9.8075
1771240842.1472895,0.00117,0.00367,0.01003,0.0966,0.1544,9.9177
1771240842.193658,-0.00021,-0.02385,0.00829,0.1192,0.4086,9.9943
1771240842.2420323,-0.00161,-0.02226,0.0076,-0.2545,0.1079,9.8294
1771240842.2975566,-0.00065,-0.00526,0.00643,-0.1774,0.1705,10.0014
1771240842.3428752,-0.00805,0.01465,0.0078,0.2129,0.2845,10.0078
1771240842.39208,-0.00695,0.01259,0.00827,0.1047,0.1685,9.699
1771240842.4446838,-0.00597,-0.01806,0.00719,0.0399,-0.0372,9.79
1771240842.4940817,-0.00269,-0.02325,0.0072,-0.1641,-0.5241,9.6665
1771240842.545315,0.0022,0.00238,0.00674,-0.1114,0.0248,9.4839
1771240842.5930321,-0.00481,-0.00257,0.00602,0.1446,0.4118,9.7663
1771240842.6458611,-0.00545,-0.0048,0.00827,0.0254,0.0572,9.7537
1771240842.6934657,-0.00278,-0.00757,0.00876,-0.1067,0.0368,9.8381
1771240842.7486024,-0.00399,-0.0216,0.00441,-0.2871,-0.0928,9.9212
1771240842.7945883,0.00265,0.01385,0.00072,0.2001,-0.1343,9.538
1771240842.862618,0.003,0.01892,0.00241,0.4294,0.0594,9.8216
1771240842.8969536,0.00324,0.01807,0.0042,0.2109,-0.0355,9.6304
1771240842.9516551,0.00519,0.00225,0.00516,-0.092,0.1592,9.7793
1771240843.0069172,0.00443,0.03492,0.00474,0.6392,-0.1631,9.7376
1771240843.055154,0.0024,-0.00084,0.00103,-0.2112,0.0028,9.7917
1771240843.0954657,0.00192,0.00565,0.00038,0.0297,-0.1122,9.5834
1771240843.1495519,-0.00625,-0.0038,0.00102,-0.0178,0.363,9.7897
1771240843.195048,-0.00749,-0.02141,0.00527,-0.2115,-0.0182,9.6426
1771240843.2466314,-0.01462,5e-05,0.00471,-0.1594,-0.2996,9.5755
1771240843.2938714,-0.00705,0.00815,0.00494,-0.5847,-0.254,10.0021
1771240843.343857,-0.00457,0.00491,0.00101,0.0396,-0.1831,9.6993
1771240843.3929307,0.00148,0.02381,0.00222,0.431,-0.2296,9.7199
1771240843.443191,0.00531,0.01494,0.00542,0.1804,0.092,9.5128
1771240843.4927182,0.00844,-0.00336,0.00576,-0.2986,0.478,9.6626
1771240843.5438716,0.01309,0.00813,0.00426,-0.7431,0.1095,9.5712
1771240843.5963912,0.01181,0.02637,0.00247,-0.0807,0.3652,9.8684
1771240843.6469204,0.00786,0.02173,-0.00046,-0.4723,0.1513,9.6672
1771240843.6914847,-0.0027,0.02011,0.00298,-0.2751,0.2148,9.8143
1771240843.7421114,-0.00555,0.0205,0.00243,-0.2905,-0.1975,9.9729
1771240843.7916076,-0.00434,0.01423,-0.00062,-0.5306,-0.1425,9.7667
1771240843.8423607,-0.0066,0.00462,-0.00098,-0.5115,-0.1268,9.8681
1771240843.8974621,-0.00778,0.00944,0.00131,-0.5778,-0.2775,9.7266
1771240843.9463603,-0.00732,0.0174,0.00106,-0.6767,-0.3039,9.8379
1771240843.9930012,-0.00261,0.01884,0.00149,-0.5671,-0.5233,9.8613
1771240844.043263,-0.0032,0.01749,0.00055,-0.4447,-0.495,9.7837
1771240844.0937865,0.00424,-0.00344,-0.00053,-0.3055,-0.3327,9.5626
1771240844.1417234,0.00099,-0.01637,5e-05,-1.021,0.1269,9.7828
1771240844.1947823,-0.00637,-0.00916,0.00191,-0.5902,0.0443,9.6647
1771240844.240964,-0.00126,-0.00183,0.00284,-0.5256,-0.0771,9.7327
1771240844.2922578,-0.0004,-0.00238,0.00098,-0.7936,-0.2461,9.7056
1771240844.3431783,-0.0023,0.00845,-0.00325,-0.6865,-0.1159,9.779
1771240844.3943977,-5e-05,0.00857,-0.00076,-0.7279,-0.1988,9.8886
1771240844.444645,0.0015,0.00848,0.00259,-0.8672,-0.0359,9.7754
1771240844.4912536,0.00517,0.00276,0.0002,-0.7096,-0.1948,9.8082
1771240844.5433342,0.0038,-0.00362,-0.0003,-0.922,-0.0242,9.7948
1771240844.5929558,0.00353,-0.00663,0.00154,-1.2099,-0.0766,9.7213
1771240844.64684,0.00493,0.01555,0.00254,-0.8898,-0.056,9.838
1771240844.693836,0.00332,0.00912,0.00126,-0.9268,0.0682,9.8116
1771240844.7428255,0.002,0.00506,-0.00058,-0.9678,-0.0172,9.9093
1771240844.7957273,0.00461,0.00161,-0.00015,-0.9605,-0.0432,9.8585
1771240844.8439155,0.00087,0.00129,0.00163,-1.0127,0.1105,9.7914
1771240844.900942,-0.00052,-0.00424,0.00125,-0.8513,-0.085,9.8164
1771240844.94528,0.00048,0.00851,-0.00182,-0.6629,-0.0924,9.7904
1771240844.998656,0.00063,-0.00471,-0.00103,-0.8357,0.0464,9.7997
1771240845.0409505,-0.00039,-0.00584,0.00157,-0.9304,0.0676,9.8704
1771240845.1006198,0.00049,-0.00161,0.00193,-0.7827,-0.0118,9.7425
1771240845.1414816,0.00253,-0.01028,-0.00018,-0.7109,0.1296,9.7108
1771240845.1963773,-0.00022,0.00493,0.00121,-0.7211,0.0527,9.8624
1771240845.2470713,0.00236,-0.00089,0.00014,-0.7478,0.08,9.8013
1771240845.2921848,-0.0016,-0.00187,0.00043,-0.6925,0.116,9.8429
1771240845.3414104,-0.00065,0.00405,0.00077,-0.6029,-0.0105,9.7531
1771240845.3924682,0.00164,-0.00242,0.00045,-0.6478,0.0785,9.822
1771240845.445244,-0.00093,-8e-05,-0.00052,-0.6838,0.0121,9.7807
1771240845.4922204,-0.00017,0.001,-0.00135,-0.5544,-0.0186,9.8084
1771240845.542066,-0.00061,-0.00038,-0.00013,-0.5946,0.0122,9.8118
1771240845.594869,-0.0007,0.00277,0.0002,-0.5703,-0.027,9.8262
1771240845.64174,0.0026,0.00426,-0.00108,-0.7045,0.0417,9.7177
1771240845.693269,0.00391,-0.01078,-0.00097,-0.4333,0.0649,9.8816
1771240845.7418687,9e-05,-0.01284,0.00248,0.0628,0.2199,9.8755
1771240845.7911935,-0.00204,-0.01685,-0.00045,0.0493,0.0323,9.8229
1771240845.8460655,-0.00271,-0.01598,-0.00309,-0.0197,-0.1028,9.8125
1771240845.8921373,0.00016,-0.00432,-0.00015,0.1738,0.0236,9.738
1771240845.942862,-0.0014,0.00148,0.00168,0.2442,0.006,9.6516
1771240845.9963245,-0.00064,0.00318,-9e-05,0.2113,-0.1272,9.7462
1771240846.04132,0.00172,-0.00573,-0.00138,0.0325,0.0787,9.9201
1771240846.096056,-0.00129,-0.00393,0.00062,-0.0601,0.0885,9.8952
1771240846.1468153,0.00035,-0.00252,0.00012,-0.0996,-0.0393,9.8524
1771240846.1927092,-0.00013,0.00091,-0.00033,0.0867,0.0122,9.7855
1771240846.2452846,0.00186,-0.0007,0.0003,0.1174,0.0004,9.7347
1771240846.2928302,0.00063,0.00214,-0.00014,0.0053,0.0081,9.81
1771240846.3410964,-5e-05,-0.00102,-0.00035,-0.0271,0.0422,9.822
1771240846.3925533,0.00097,-0.00361,-0.00032,0.0209,0.0259,9.7854
1771240846.444538,-0.0001,0.00117,-0.00023,0.0239,-0.0094,9.806
1771240846.4950747,-0.00081,0.00342,-0.00033,0.0127,-0.0094,9.7831
1771240846.5462313,0.00044,-0.00135,-6e-05,0.0081,0.0431,9.827
1771240846.5914989,-0.00052,-0.00071,0.00028,0.0064,0.0468,9.8255
1771240846.6456313,0.00069,0.00024,3e-05,0.0428,0.0159,9.7858
1771240846.6988626,-0.00111,0.00259,-0.00014,0.0218,0.0207,9.8009
1771240846.7459228,0.00255,-0.00334,0.00035,-0.011,0.0199,9.7944
1771240846.7941294,0.00137,-0.00315,-0.00049,0.0011,-0.0008,9.8131
1771240846.8424208,0.00138,-0.00267,-0.00037,0.0203,0.0284,9.7927
1771240846.8923025,0.00071,-0.00062,0.00022,0.0277,0.0369,9.7989
1771240846.9461381,-0.00045,0.00047,0.00032,-0.0116,0.0184,9.8138
1771240846.9964077,0.00069,-0.00145,-0.00069,-0.0152,0.022,9.815
1771240847.0477433,-0.00187,0.00522,0.00074,0.0167,0.0224,9.8159
1771240847.0914757,0.00071,2e-05,0.00019,0.0164,0.0251,9.8147
1771240847.149478,-3e-05,-0.00034,-0.00067,0.0004,0.0233,9.7906
1771240847.1982198,0.00088,-0.00091,-0.00022,-0.0026,0.0347,9.7923
1771240847.256217,-0.00077,0.00201,0.00074,0.0129,0.0177,9.831
1771240847.2935348,-0.00108,0.0024,-0.00011,0.0202,0.0295,9.8183
1771240847.341884,-0.00055,-0.00123,-0.00024,0.0181,0.0202,9.8078
1771240847.3917863,0.00025,-8e-05,0.0001,0.0022,0.0142,9.8108
1771240847.441458,0.00108,-0.00166,-0.0002,-0.0012,0.0034,9.8202
1771240847.4914167,0.00081,0.00032,-0.00042,0.0129,0.0343,9.7998
1771240847.5524337,0.00023,-0.00316,9e-05,0.0341,0.0542,9.8148
1771240847.5922546,0.00219,-0.00246,0.00035,0.013,0.0191,9.837
1771240847.642604,-0.00029,-0.00104,-0.00046,-0.0065,0.0281,9.8312
1771240847.6960008,0.00086,-0.00303,0.00022,0.002,-0.0098,9.8163
1771240847.7429614,0.00084,-0.00281,-0.00021,0.016,0.0158,9.7923
1771240847.796702,0.00137,-0.00044,0.00044,0.0204,0.0334,9.8053
1771240847.8459194,-0.00326,0.00803,0.00108,0.0033,0.0377,9.8179
1771240847.8936386,-0.00014,-0.00019,0.00026,0.0076,0.0353,9.8134
1771240847.9505928,-0.00038,0.00255,-0.00046,0.0209,-0.0152,9.8007
1771240847.995681,-0.00137,0.00079,-0.00042,0.0192,0.0127,9.7831
1771240848.042283,0.00069,-0.00048,-2e-05,0.0319,0.0204,9.799
1771240848.0976682,-0.00073,0.00272,0.0001,0.0003,0.0293,9.805
1771240848.1464372,-0.00034,0.00188,-0.00034,0.0102,0.0386,9.821
1771240848.1991668,0.00076,-0.00142,0.0001,0.0041,0.0026,9.8033
1771240848.2422142,-0.00037,0.00019,-0.00017,0.0046,0.0144,9.8
1771240848.296577,-0.00121,0.00059,7e-05,0.0134,0.0219,9.8255
1771240848.3439167,-0.00183,0.00266,0.00049,0.0179,0.0263,9.8025
1771240848.4069877,0.00013,0.00017,-0.00016,0.0114,0.0287,9.808
1771240848.4547734,-0.00071,0.00035,-0.00034,-0.0003,0.0265,9.8082
1771240848.502252,0.00136,-0.00389,-0.00074,0.0139,0.0118,9.8232
1771240848.5418334,-0.00058,-0.0001,-6e-05,0.0057,0.024,9.8197
1771240848.596142,0.00083,0.00071,0.0001,0.0156,0.0249,9.7973
1771240848.6450872,-0.0013,0.00187,-0.00029,0.0005,0.0345,9.83
1771240848.6921887,-7e-05,0.00015,0.0001,0.0272,0.027,9.8039
1771240848.7466283,5e-05,0.00197,0.00014,-0.0007,0.0274,9.7969
1771240848.8116167,-0.00143,0.0036,0.00045,0.0079,0.0199,9.8212
1771240848.8434308,-0.0007,0.00118,-0.00013,0.0156,0.0317,9.8026
1771240848.8925238,-0.00132,0.00042,-9e-05,0.0029,0.0188,9.8166
1771240848.9469209,-0.00053,0.00405,0.0,0.0261,0.0107,9.793
1771240848.9943757,-0.00051,0.00125,0.00046,0.0192,0.0335,9.811
1771240849.041772,-0.00046,-0.00052,-0.00038,0.0135,0.0159,9.797
1771240849.1028478,-0.00077,0.0006,-0.00027,0.0147,0.0239,9.802
1771240849.1416843,0.00082,-0.00155,-0.00017,0.0029,0.0144,9.7989
1771240849.2013056,0.00051,0.00142,0.00052,0.0082,0.0316,9.8118
1771240849.2435431,0.00014,-0.00162,-4e-05,0.0226,-0.0099,9.8298
1771240849.2990294,-0.00085,0.00277,0.00041,0.0113,0.0371,9.7832
1771240849.341534,0.00142,-0.00183,-0.00012,-0.0016,0.0116,9.8312
1771240849.4118152,-0.00197,0.00388,0.00059,0.0034,0.0252,9.8229
1771240849.442142,-0.00341,0.00409,0.00043,0.0118,0.0197,9.8226
1771240849.4969132,0.00052,-0.00033,-0.00015,0.013,0.0167,9.8024
1771240849.5420253,-2e-05,-0.00142,0.00024,0.008,0.0275,9.8228
1771240849.5960119,-0.00024,1e-05,-0.00016,0.0028,0.032,9.8079
1771240849.6430602,-0.0006,0.0012,-0.00022,0.011,0.0155,9.7973
1771240849.695048,-0.00029,8e-05,-0.00048,0.0105,0.0151,9.8049
1771240849.7418895,0.00022,0.00047,0.00042,0.0095,0.0215,9.8222
1771240849.79313,-0.00032,0.00052,-0.00033,0.0189,0.0139,9.8329
1771240849.8410525,-0.00065,-0.00054,-4e-05,0.0114,0.0248,9.8062
1771240849.89238,0.00034,-0.0008,-0.0005,-0.0036,0.0218,9.8005
1771240849.949027,-8e-05,-0.00168,-4e-05,0.0097,0.0228,9.8115
1771240849.9936872,-0.0014,0.00166,7e-05,0.0183,0.0176,9.8064
1771240850.0433016,-0.00099,0.00216,0.00066,0.0093,0.0087,9.8218
1771240850.1003401,0.0006,0.00195,0.00076,0.0019,0.0292,9.8156
1771240850.1423538,-0.00105,0.00335,0.00035,0.01,0.0231,9.7948
1771240850.1964228,0.00047,-0.00034,-0.00033,0.0179,0.0209,9.8081
1771240850.2409952,-0.00058,-0.0005,-0.00038,0.0109,0.0236,9.8241
1771240850.292161,-0.00076,0.00134,0.0003,-0.0021,0.0395,9.82
1771240850.3431866,-4e-05,-6e-05,8e-05,0.0144,0.0142,9.8131
1771240850.3915944,0.0011,0.0004,0.00068,0.0467,0.0081,9.8002
1771240850.442604,0.0001,0.00563,-0.00057,0.0007,-0.013,9.9685
1771240850.4929729,-0.00084,-0.0007,0.00125,-0.0823,0.0568,9.7219
1771240850.5457828,0.00118,0.0069,-0.00143,0.1407,-0.0255,9.9081
1771240850.5942848,0.0007,0.00554,-0.00044,0.1182,0.1357,9.9108
1771240850.6437538,0.00035,-0.01194,0.00054,-0.0761,0.1225,9.8022
1771240850.6918979,0.00108,-0.00871,-0.0003,-0.0866,0.1108,9.8345
1771240850.746964,0.00112,-0.00311,-9e-05,-0.0231,0.0315,9.7804
1771240850.7915237,0.00042,0.00188,8e-05,0.0722,0.0807,9.8433
1771240850.841751,-0.00049,0.00333,0.00054,-0.002,0.0631,9.8421
1771240850.8912315,-0.00081,-0.00016,-0.00029,0.0105,0.0296,9.7957
1771240850.9473476,0.00066,-0.00326,-0.00042,-0.0067,0.0392,9.827
1771240850.9917755,-0.00142,0.00045,0.00042,-0.0006,0.0298,9.8284
1771240851.0449736,0.00087,-0.00128,-4e-05,0.0358,0.0343,9.8186
1771240851.0994778,-0.00129,0.00151,-0.00022,0.0147,0.0426,9.8015
1771240851.1428106,0.00055,-0.0001,9e-05,0.0158,0.0219,9.7952
1771240851.1917567,-0.00047,0.00401,-0.00028,0.0248,0.0128,9.8105
1771240851.2467046,0.00082,-0.00158,0.00015,0.0225,0.0309,9.8177
1771240851.2926579,-0.0017,0.00252,0.00097,0.0126,0.0226,9.8009
1771240851.351929,-0.00025,-0.00126,-0.00023,0.0075,0.0298,9.8262
1771240851.3917265,0.00055,-0.00234,-0.0002,0.009,0.0174,9.804
1771240851.4499097,-0.00025,0.00047,0.00018,0.0245,0.0239,9.8122
1771240851.4918277,0.00137,-0.00225,0.0001,-0.0051,0.0197,9.8081
1771240851.5568306,-0.00083,0.00033,-0.00039,0.0083,0.0185,9.7966
1771240851.5913959,0.0002,-6e-05,-0.0002,0.0134,0.0205,9.8213
1771240851.6424053,0.00025,-0.00121,1e-05,0.0092,0.009,9.8044
1771240851.698151,-0.00059,0.00164,-0.00069,0.019,0.0099,9.8145
1771240851.7412984,0.00059,-0.00024,0.0006,0.0015,0.0315,9.8056
1771240851.791646,0.00019,-0.00036,0.00015,0.0052,0.032,9.8027
1771240851.8444018,-0.00014,0.00029,0.00054,0.0179,0.0142,9.8113
1771240851.8921883,-0.00072,0.00072,0.00041,0.0124,0.0276,9.8241
1771240851.9418285,0.00028,-0.00171,-0.00025,0.0082,0.0073,9.8208
1771240851.9960146,0.00039,0.00092,-7e-05,0.007,0.0173,9.7995
1771240852.041205,-0.00026,0.00069,0.00065,-0.0039,0.0362,9.7947
1771240852.0973504,-0.00049,0.00087,-0.00015,0.0115,0.0171,9.8209
1771240852.141442,0.0005,0.00126,-0.00016,0.0187,0.0236,9.802
1771240852.1938062,-0.00054,0.00023,1e-05,-0.0033,0.015,9.8052
1771240852.2467258,-0.00052,-0.00019,0.00061,0.0028,0.0282,9.8042
1771240852.2925065,0.00044,-0.00079,-0.00041,0.0159,0.0194,9.8187
1771240852.3445218,-0.00131,0.00159,-0.0001,0.0189,0.0271,9.8057
1771240852.3966057,0.00199,-0.00328,-0.00026,0.006,0.0234,9.7949
1771240852.442182,0.00067,-0.00168,-0.00025,0.0014,0.018,9.7952
1771240852.4933174,0.00011,-7e-05,-0.00031,-0.0006,0.0213,9.802
1771240852.5442076,0.00029,-0.00027,-0.00019,0.0121,0.0161,9.8115
1771240852.597001,0.00051,9e-05,-0.00051,0.0208,0.0261,9.8093
1771240852.6437042,-0.0001,0.00034,8e-05,0.0109,0.0329,9.7953
1771240852.6950994,-0.00051,0.00192,0.00058,0.0048,0.0151,9.8118
1771240852.7456946,0.00077,-0.00216,-0.00031,0.0111,0.0088,9.7943
1771240852.7909794,0.00026,-0.00055,-0.00024,0.0042,0.0169,9.8193
1771240852.8411915,0.00032,-0.00177,-0.00025,0.0133,0.0418,9.8129
1771240852.8934019,0.00147,-0.00177,0.0,0.0112,0.0284,9.8069
1771240852.9426644,-0.00042,0.00041,0.00028,0.0088,0.0352,9.8053
1771240852.9917095,-0.00095,0.002,0.0006,0.0084,0.0103,9.8166
1771240853.046473,0.00083,-0.00043,-0.00066,0.0175,0.0127,9.7985
1771240853.0942557,0.00061,0.00037,0.00018,0.0034,0.0134,9.8261
1771240853.1466663,0.0013,-0.00185,-0.00029,0.0085,0.0304,9.8064
1771240853.1935027,-4e-05,-0.00025,-0.00013,0.0077,0.0226,9.8066
1771240853.2412226,-0.00045,0.00334,-0.0001,0.0179,0.0297,9.7982
1771240853.2925985,0.0014,-0.00235,-0.00047,0.0141,0.0129,9.798
1771240853.3418412,5e-05,0.00162,0.00033,-0.0038,0.0138,9.8127
1771240853.3964083,-0.0,-0.0017,-0.00022,0.012,0.0185,9.8194
1771240853.4414942,0.00029,0.00056,-0.00022,0.0185,0.0208,9.806
1771240853.4995768,-0.00086,0.00021,-0.0001,0.0171,0.032,9.8005
1771240853.5418768,0.00131,-0.00206,-0.00034,0.0077,0.0091,9.8047
1771240853.600971,0.00012,-0.00019,1e-05,0.014,0.0172,9.8287
1771240853.6414585,-0.00016,-0.00035,9e-05,0.0147,0.0302,9.7905
1771240853.706997,0.00067,-0.00085,-0.00019,0.0056,0.0174,9.8202
1771240853.7458844,-0.00033,-0.00023,-9e-05,0.0179,0.0334,9.8084
1771240853.7914772,-0.00044,0.00519,0.00067,0.0245,0.0138,9.8404
1771240853.8409123,0.00014,0.00115,0.00025,0.0135,0.0194,9.8195
1771240853.8919404,-0.00082,0.0025,-0.0004,0.0027,0.0338,9.8027
1771240853.9626148,0.00026,-0.00087,-0.00028,0.011,0.0076,9.8165
1771240853.9911141,-0.00194,0.00225,0.00067,0.0157,0.0293,9.8151
1771240854.0464988,0.00321,-0.00572,-0.00034,0.0219,0.0051,9.8041
1771240854.095498,0.00075,-0.00257,-0.00047,0.0014,0.0266,9.7937
1771240854.14212,-0.00118,5e-05,-0.00049,-0.0012,0.0338,9.8071
1771240854.191709,0.00073,0.00018,0.00029,0.0112,0.0152,9.8028
1771240854.2443347,-0.00096,0.00195,1e-05,0.0042,0.0079,9.8085
1771240854.2911355,0.00074,0.00054,0.00022,0.0152,0.0086,9.7975
1771240854.3416333,0.00016,0.00154,0.00024,0.016,0.0495,9.82
1771240854.391928,9e-05,-0.00149,-0.00044,0.0213,0.0384,9.813
1771240854.4426517,-0.00064,0.00255,-0.00013,0.0139,0.0166,9.8149
1771240854.4957561,-0.00041,0.00109,0.00033,-0.0009,0.0161,9.8043
1771240854.544462,0.00036,0.00057,-0.00027,0.0101,-0.0126,9.8097
1771240854.5916624,0.00202,0.00044,0.00053,0.0018,0.0342,9.804
1771240854.6411922,-0.00038,-0.00067,0.00033,0.0152,0.03,9.8293
1771240854.6927798,-0.00099,0.0011,0.00051,0.0198,0.0274,9.7974
1771240854.7411845,0.0004,-0.0022,-0.00054,0.0124,0.0208,9.8198
1771240854.792756,0.00202,-0.00229,-0.00013,-0.0019,0.0058,9.8097
1771240854.8430378,0.0018,-0.00163,0.00013,0.0014,0.0145,9.8124
1771240854.8909018,-7e-05,-8e-05,-0.00029,0.0236,0.0251,9.8132
1771240854.941166,-0.00086,0.00204,0.00026,0.034,0.0255,9.8238
1771240854.9955738,0.00138,-0.00261,-0.00056,0.0011,0.021,9.7996
1771240855.0422354,0.00056,-0.00085,0.00021,0.0007,-0.0019,9.8025
1771240855.0941765,0.00367,-0.00789,-0.00066,0.0145,0.0243,9.8252
1771240855.1435487,0.00251,-0.00531,-0.00028,0.0222,0.0292,9.8154
1771240855.1970003,0.00131,-0.00034,-4e-05,0.0096,0.0241,9.8176
1771240855.2418678,2e-05,0.00068,0.00025,0.0048,0.0328,9.7752
1771240855.2972996,0.00173,-0.00311,-0.00019,0.0078,-0.009,9.8135
1771240855.344894,-0.00083,0.00286,-0.00011,0.0104,0.024,9.8091
1771240855.3932788,-0.00079,0.00022,0.00013,0.0102,0.0198,9.8039
1771240855.4483178,-0.00062,0.00165,0.00018,0.0213,0.0154,9.8324
1771240855.491968,0.00098,-0.00242,0.00035,-0.0024,0.0373,9.8086
1771240855.547181,0.0008,-0.00078,-1e-05,-0.0091,-0.0055,9.8221
1771240855.5921605,0.00052,-0.00183,-0.00022,0.0107,0.0097,9.837
1771240855.6509948,0.00053,-0.00125,-0.0001,0.014,0.0114,9.8253
1771240855.692182,0.00147,-0.00041,-2e-05,0.016,0.0342,9.8152
1771240855.7495143,0.00015,0.0011,0.00046,0.0124,0.0336,9.8021
1771240855.7932167,0.0001,-0.00034,-2e-05,0.012,0.0328,9.7838
1771240855.8413076,-0.00195,0.00183,-2e-05,0.0083,0.0058,9.8138
1771240855.8911169,-0.00062,0.00017,-0.0002,0.0133,0.0116,9.8211
1771240855.9409707,-0.0002,0.00329,0.00071,0.0178,0.0135,9.8057
1771240856.007592,0.00058,-0.00042,-0.00012,0.0201,0.0392,9.8062
1771240856.0482335,-0.00092,0.00071,0.0002,0.0197,0.0333,9.8236
1771240856.0924213,-0.00039,-0.00104,-0.0002,0.0051,0.0174,9.8235
1771240856.143164,0.00051,0.00073,0.00037,0.0039,0.0088,9.8032
1771240856.1914973,-0.00083,0.00365,0.00068,0.0228,-0.0011,9.8162
1771240856.2408915,0.00096,-0.00105,1e-05,0.0184,0.026,9.8253
1771240856.2911613,-0.00152,0.00167,0.00037,0.0095,0.0327,9.8098
1771240856.3439972,0.00069,-0.00042,1e-05,0.0047,0.0157,9.7999
1771240856.3967686,-0.00147,0.00099,0.00043,0.0204,0.0276,9.8078
1771240856.4413452,-0.00031,0.00184,0.00034,0.0221,0.0136,9.8196
1771240856.4928238,0.00049,-0.00124,-0.00032,0.0104,0.0158,9.834
1771240856.5451248,0.00147,-0.00159,0.00074,0.0017,0.0291,9.8067
1771240856.5913782,-0.0012,0.00047,0.00036,0.0057,0.0132,9.8012
1771240856.6457722,0.00014,-0.00028,-0.00037,0.0175,0.0203,9.7892
1771240856.6919987,0.00027,-0.00057,-0.00013,0.0184,0.0168,9.8178
1771240856.7412174,0.00069,-0.00187,-0.00071,0.0142,0.0373,9.81
1771240856.7916627,-0.00132,-0.00186,-0.00032,0.0185,0.0368,9.8107
1771240856.8411908,0.00021,0.00011,-6e-05,0.0142,-0.0073,9.7994
1771240856.891294,0.00149,-0.00187,8e-05,0.0009,0.0325,9.8106
1771240856.9430745,0.0003,0.00145,0.00057,0.0067,0.0166,9.8098
1771240856.9928916,0.00167,-0.00042,0.00036,0.0129,0.0154,9.8086
1771240857.0424423,-0.00017,-0.00033,-0.00054,0.0164,0.032,9.8007
1771240857.0916996,0.00048,-0.00065,0.00015,0.0011,-0.0087,9.7988
1771240857.1416924,0.00124,-0.0007,-0.00023,0.0017,0.0413,9.8158
1771240857.1958015,-0.00022,-0.00018,0.00011,0.0175,0.004,9.8205
1771240857.2412498,0.00089,-0.00162,-0.00031,0.0274,0.0299,9.7945
1771240857.291332,-0.00208,0.00551,0.00086,0.0001,-0.0127,9.8085
1771240857.345177,-0.002,0.00304,-0.00055,-0.008,0.0254,9.7848
1771240857.3923955,-0.00076,0.00277,0.00036,0.0115,0.0155,9.7999
1771240857.4416697,0.00091,-0.00249,-0.00011,0.0212,0.0385,9.8067
1771240857.4966018,-0.00066,0.00028,0.00019,0.0045,0.0206,9.7978
1771240857.5425282,0.00011,0.00076,0.00027,0.0107,0.0202,9.8026
1771240857.5965781,0.00052,-0.00163,0.0002,0.0057,0.0146,9.833
1771240857.6413517,0.00011,0.00066,-0.00014,0.0119,0.0271,9.8112
1771240857.6962523,-0.00089,0.00037,-0.00016,0.0191,0.0304,9.7969
1771240857.741006,0.00043,-0.00016,0.00041,0.0091,0.0099,9.8003
1771240857.7983913,-0.00149,-7e-05,-0.00012,0.0013,0.0182,9.8226
1771240857.8427575,0.00171,-0.0033,-2e-05,0.0021,0.0129,9.8131
1771240857.900991,-0.00017,-0.00109,-1e-05,0.008,0.025,9.797
1771240857.941279,0.0006,0.00268,0.00043,0.0259,0.0174,9.8044
1771240857.991784,0.0006,-0.00127,-0.00027,0.0126,0.0254,9.8065
1771240858.0489535,-0.00147,0.0038,0.0002,0.0107,0.017,9.8006
1771240858.0908394,-0.0018,0.00293,0.00034,0.0052,0.0144,9.8127
1771240858.1506863,0.00128,-0.00134,-0.00014,0.017,0.0282,9.8158
1771240858.1926765,0.00126,-0.00235,-0.00036,0.0072,0.0311,9.8117
1771240858.2492812,-0.00053,0.00214,0.00038,0.0136,0.0228,9.8041
1771240858.290878,0.00015,0.00059,0.00019,0.0192,0.022,9.8118
1771240858.3437045,-0.00131,0.00387,0.0002,0.0112,0.0162,9.7943
1771240858.393087,0.00026,-0.00095,-0.00027,0.0022,0.0205,9.8153
1771240858.4471567,0.00062,0.00054,0.00018,0.0141,0.0189,9.8119
1771240858.4997237,0.00041,-0.0013,-0.00033,0.0143,0.026,9.8116
1771240858.5410573,-0.00062,0.00244,0.00062,0.0098,0.0314,9.7918
1771240858.593465,0.00013,0.00208,-1e-05,0.0002,0.0087,9.8183
1771240858.6413386,0.00059,-0.00117,-0.00032,0.018,0.0236,9.8055
1771240858.6915112,-0.00112,0.00229,0.0003,0.018,0.0242,9.8085
1771240858.7444656,-0.0007,-0.00023,0.00032,0.0128,0.0317,9.8019
1771240858.793032,-0.00047,-0.002,-0.00033,0.0065,0.0248,9.8215
1771240858.8422012,0.00179,-0.00371,-0.00061,0.0,0.0092,9.8202
1771240858.8929777,0.00058,-0.00046,-0.00024,0.0152,0.0236,9.8192
1771240858.9437377,0.00031,-0.00017,-3e-05,0.0168,0.0162,9.8127
1771240858.9932656,-4e-05,-0.00109,-0.00048,0.0046,0.0331,9.8149
1771240859.046576,0.00038,-0.00281,-0.00058,0.0012,0.0191,9.8279
1771240859.0939333,0.00151,-0.00299,-0.00015,0.0184,0.0113,9.8074
1771240859.141297,0.00024,-0.00284,-0.00063,0.0105,0.0182,9.8056
1771240859.19205,-0.00022,0.00253,0.0,0.0132,0.0208,9.8166
1771240859.2421184,-0.0007,0.00122,-0.00028,0.0068,0.0283,9.8007
1771240859.2945917,0.00037,0.00061,0.00023,0.0164,0.0141,9.8004
1771240859.3464947,-0.00164,0.00189,-0.00027,0.0138,0.0235,9.8149
1771240859.3946943,0.00019,-0.00082,-0.00011,0.0021,0.0097,9.7946
1771240859.441496,-0.00171,0.00267,-0.00013,0.0139,0.0118,9.7978
1771240859.4976592,-0.00075,0.00146,-0.00039,0.0166,0.0121,9.7981
1771240859.5529666,0.00116,-0.00221,-0.00045,0.0107,0.0353,9.8079
1771240859.5969818,0.00053,5e-05,-6e-05,0.0016,0.0165,9.805
1771240859.6415596,0.00098,-0.00185,-0.00022,0.015,0.0159,9.7983
1771240859.6918004,-0.00148,0.00207,0.00029,0.0295,0.0072,9.8179
1771240859.7486145,0.00045,-0.00045,-0.00026,0.0197,0.0238,9.8045
1771240859.7933302,0.00039,0.00041,-2e-05,-0.0074,0.0166,9.8136
1771240859.8492582,9e-05,-0.00096,-0.00016,0.0014,0.0177,9.8352
1771240859.896165,-0.0007,0.00027,-0.0004,0.0181,0.0128,9.8094
1771240859.9486597,-0.00138,0.00578,0.00056,0.014,0.0257,9.8038
1771240859.991873,-0.00109,0.00407,0.00065,0.0041,0.0118,9.8273
1771240860.0571375,0.00025,-0.00203,6e-05,0.0038,0.0234,9.8156
1771240860.094335,0.00085,-0.0008,0.00036,0.0125,0.0213,9.8127
1771240860.1533153,0.00011,-0.00263,-0.00022,0.0149,0.0268,9.8181
1771240860.1939864,0.00185,-0.00128,-4e-05,0.0106,0.0202,9.7986
1771240860.2421188,-0.00034,0.00691,0.00088,0.0054,0.0148,9.7925
1771240860.291078,0.0011,-0.00212,0.00019,0.019,0.0314,9.8031
1771240860.3416653,-0.00035,0.00244,0.0009,0.0074,0.0144,9.8021
1771240860.393901,0.00099,-0.0023,-0.00047,0.0052,0.0167,9.8015
1771240860.4434874,0.00124,-0.00176,-0.00046,0.0104,0.0309,9.805
1771240860.4947777,-0.00205,0.00321,0.00021,0.0094,0.0244,9.8096
1771240860.5412903,-0.00012,-3e-05,-0.00024,0.0143,0.0214,9.7982
1771240860.594766,7e-05,-0.00013,-3e-05,0.0089,0.0193,9.8083
1771240860.6433458,0.00083,-0.00101,3e-05,0.0091,0.0219,9.8343
1771240860.6981082,-0.00014,-0.00064,0.00017,-0.0005,0.0257,9.7974
1771240860.829773,0.00155,-0.00336,0.00013,0.0117,0.0245,9.7999
1771240860.8363876,0.00071,8e-05,0.00013,0.0194,0.0201,9.7966
1771240860.8420038,-5e-05,-0.00084,0.00012,0.0089,0.0233,9.8317
1771240860.891112,0.00121,-0.0023,-4e-05,0.0111,0.03,9.8173
1771240860.9442286,0.0,0.0002,-0.00029,0.0135,0.0232,9.7914
1771240860.9922569,-0.00215,0.00508,0.00035,0.012,0.0205,9.807
1771240861.042322,0.00036,0.00095,0.00045,0.0122,0.0262,9.7923
1771240861.0945234,-0.00093,0.00066,-5e-05,0.0084,0.0079,9.8226
1771240861.1431952,-0.00088,0.00267,0.0,0.0068,0.0374,9.8152
1771240861.1936748,0.00067,-0.00426,-0.00058,0.0154,0.0245,9.8114
1771240861.2413564,0.00107,-0.00108,0.0002,0.011,0.0132,9.8127
1771240861.2947335,0.00022,-0.0019,2e-05,0.0177,0.0214,9.803
1771240861.3417454,-0.00147,0.00359,0.0003,0.0077,0.0106,9.8091
1771240861.3949637,0.00014,-0.00022,-0.00011,-0.0009,0.028,9.8217
1771240861.4415112,2e-05,0.0011,-0.00012,0.0091,0.025,9.8012
1771240861.4931908,-0.00025,-0.00024,0.00031,0.0086,0.0218,9.8112
1771240861.5495152,-0.00082,0.0017,0.00011,0.0287,0.0111,9.8122
1771240861.593043,0.00093,0.0003,-0.00011,0.0222,0.0151,9.8059
1771240861.6466954,-0.00032,-0.00028,0.00024,-0.002,0.0308,9.7943
1771240861.6927326,-0.00074,0.00073,0.00036,0.0075,0.0152,9.8349
1771240861.743669,-0.00062,0.00045,-0.00029,0.0026,0.0252,9.8176
1771240861.7954793,0.00028,-0.00054,-0.00049,0.0159,0.0247,9.8078
1771240861.842707,0.00165,-0.0013,0.00041,0.019,0.0149,9.8134
1771240861.8983216,9e-05,0.00027,0.00022,0.0118,0.0242,9.8038
1771240861.947434,0.00063,-0.00111,-0.00016,0.0069,0.0219,9.831
1771240862.010412,0.00058,0.00118,0.00022,0.008,0.0293,9.8136
1771240862.0413601,-0.00016,-0.00013,0.00016,0.0054,0.0126,9.8072
1771240862.1071322,6e-05,-0.00118,-3e-05,0.0148,0.0112,9.8132
1771240862.1502426,-0.00037,0.00084,0.00032,0.0126,0.0213,9.8296
1771240862.2134852,-0.00126,-0.00048,9e-05,0.0099,0.0216,9.8028
1771240862.250295,-0.00057,0.00133,0.00027,0.0092,0.0252,9.7782
1771240862.3142633,0.00136,-0.00187,0.00022,0.013,0.0157,9.8084
1771240862.3419838,-0.00082,0.00033,-0.00011,0.0101,0.017,9.8018
1771240862.3910081,-0.00189,0.005,0.00031,0.0152,0.0259,9.8078
1771240862.4429328,-0.00042,0.00027,0.00047,0.0067,0.0226,9.8234
1771240862.4932003,0.00071,-0.00167,-1e-05,0.0071,0.0147,9.8082
1771240862.5425224,0.00064,-0.00106,-0.00079,0.0203,0.0225,9.7999
1771240862.5935245,-0.00042,-0.00088,-0.0002,0.0133,0.023,9.8011
1771240862.6460545,-0.00052,0.00241,7e-05,0.0038,0.0169,9.8052
1771240862.6982536,0.00085,-0.00217,5e-05,0.0142,0.0213,9.8255
1771240862.7424743,-0.00035,0.00095,0.00015,0.0253,0.0179,9.8015
1771240862.8183615,-0.00012,0.0011,0.00021,0.0075,0.0209,9.8217
1771240862.8555954,0.0011,-0.002,-0.00013,0.0048,0.0274,9.8137
1771240862.8977985,-0.00048,-0.00068,-5e-05,0.0189,0.0041,9.8212
1771240862.950244,-0.00175,-0.00217,-0.00143,0.016,0.0292,9.8164
1771240862.9953933,0.00149,-0.0009,-0.00019,0.0172,0.0226,9.8057
1771240863.055317,0.00047,-0.00059,-0.00021,0.0082,0.0099,9.7786
1771240863.1313226,0.00024,-0.00051,0.0005,0.0056,0.0309,9.7869
1771240863.1466231,0.00077,0.00018,-0.0001,0.0177,0.0109,9.8031
1771240863.1972895,0.00074,-0.0015,0.00058,0.0051,0.0183,9.8002
1771240863.2516692,-0.0014,0.0015,0.00014,0.0123,0.0126,9.8245
1771240863.3049924,-0.00087,0.00206,0.00059,0.0184,0.0369,9.7902
1771240863.3447556,-0.0007,0.00405,0.00066,0.0076,0.0151,9.7894
1771240863.3917706,0.00033,-0.00142,0.00017,0.0098,0.0145,9.8011
1771240863.4441347,-0.00128,0.00361,0.00099,-0.0008,0.0422,9.8052
1771240863.4977741,0.0004,0.00308,0.00064,0.0118,0.0148,9.8173
1771240863.5472343,-0.00055,0.0008,-0.00025,-0.0009,0.0168,9.8101
1771240863.5950608,0.00028,0.00037,0.00061,0.0091,0.0109,9.806
1771240863.6439881,-0.00121,0.00168,0.00044,0.016,0.0112,9.8103
1771240863.693641,0.0015,-0.00273,-5e-05,0.0311,0.0282,9.7891
1771240863.7443228,0.00086,0.00113,0.00014,0.0176,0.0252,9.8134
1771240863.7964265,-0.00146,0.00149,-0.0002,-0.0017,0.0196,9.8141
1771240863.8443112,-0.00181,0.00309,7e-05,0.0066,0.0145,9.8045
1771240863.891593,0.00137,-0.00213,4e-05,0.016,0.0129,9.8073
1771240863.951033,0.00051,-0.00056,-0.00015,0.0277,0.0339,9.8147
1771240863.9955707,0.00118,-0.00151,3e-05,0.0015,0.0225,9.8124
1771240864.0536065,-0.0001,0.00089,-7e-05,0.0057,0.026,9.8167
1771240864.0930133,0.00095,-0.0012,-0.00019,0.0133,0.0112,9.8081
1771240864.1472602,0.00062,-0.00106,8e-05,0.0204,0.0141,9.8238
1771240864.1914105,0.001,-0.00114,-0.00075,0.0012,0.0269,9.8108
1771240864.2503028,-3e-05,0.00206,5e-05,0.01,0.02,9.8142
1771240864.29082,0.00142,-0.0025,-0.00076,0.0149,0.0259,9.8162
1771240864.3597317,0.00072,-0.00233,-0.0005,0.0114,0.018,9.8057
1771240864.3909104,0.00031,0.00055,0.00033,0.0027,0.0268,9.7751
1771240864.4422367,0.00035,-0.00129,-0.0002,0.0217,0.025,9.8149
1771240864.491314,0.0015,-0.00185,-0.00035,0.0087,0.031,9.8323
1771240864.5445752,0.00223,-0.00212,-1e-05,0.0111,0.0281,9.8027
1771240864.5949452,0.00113,-0.00047,0.0002,0.0026,0.022,9.8193
1771240864.651447,-0.00088,0.00127,-3e-05,0.0113,0.0136,9.8011
1771240864.691079,-0.00132,0.0035,0.00026,0.026,0.0221,9.808
1771240864.7433708,-0.00014,-0.00106,-0.00035,0.0062,0.0157,9.8105
1771240864.796055,0.00041,-0.00122,-0.0001,0.0087,0.0211,9.8079
1771240864.8444006,-0.00197,0.00584,2e-05,0.0123,0.0147,9.8074
1771240864.8924322,-0.00026,0.00246,0.00012,0.024,0.0212,9.8274
1771240864.945386,0.00091,-0.00137,-0.00036,0.0061,0.0314,9.8128
1771240864.996234,0.00035,0.00063,-0.00022,0.003,0.0123,9.8114
1771240865.0408542,0.00169,-0.00611,-0.00086,0.0238,0.0274,9.8327
1771240865.0915873,-0.00336,0.00463,-0.00039,0.0272,0.0075,9.8078
1771240865.1450346,0.00012,-0.00076,1e-05,0.0005,0.0188,9.8234
1771240865.1927917,-0.00038,0.00095,2e-05,0.0033,0.029,9.8037
1771240865.2441866,0.00074,-0.00403,-0.00049,0.0146,0.0263,9.8078
1771240865.2922843,-0.00119,0.00131,-4e-05,0.0208,0.028,9.8073
1771240865.3483508,0.00239,-0.00074,-0.00017,0.0134,0.0164,9.7949
1771240865.3982306,0.00097,0.00141,0.00039,0.0009,0.0191,9.791
1771240865.4521549,0.00039,-0.00114,-7e-05,0.0127,0.0139,9.8226
1771240865.5044692,0.00021,0.00249,6e-05,0.0161,0.0221,9.811
1771240865.5498068,0.00101,-0.00248,-0.00041,0.0227,0.0224,9.801
1771240865.6027546,-0.00071,0.00309,0.00038,0.0049,0.0127,9.818
1771240865.6499884,0.00045,-5e-05,0.00038,0.0104,0.0183,9.808
1771240865.6920528,-0.00049,-0.00139,3e-05,-0.0004,0.0109,9.8222
1771240865.7427106,0.00139,-0.00201,-3e-05,0.0113,0.0207,9.8049
1771240865.790938,-0.00018,-0.00063,-0.00064,0.0204,0.0171,9.8095
1771240865.8403993,-0.00029,-0.00031,-7e-05,0.0101,0.0366,9.8076
1771240865.8978653,-0.00053,0.00228,0.00039,0.0153,0.0181,9.7903
1771240865.9431727,-0.00074,0.00229,0.0002,0.0104,0.0258,9.8169
1771240865.9966493,0.00061,-0.0012,-0.00021,-0.0076,0.0221,9.8114
1771240866.043286,0.00094,-0.00354,0.00036,-0.0004,0.0187,9.8105
1771240866.0925155,0.00017,-0.00016,0.00027,0.0203,0.0236,9.806
1771240866.140999,0.00048,0.00024,-9e-05,0.0272,0.0226,9.8102
1771240866.2004528,-0.00046,0.00015,-0.00026,0.0092,0.0264,9.8201
1771240866.2418392,-0.0001,0.00104,0.00036,0.0001,0.0121,9.8099
1771240866.3021247,-0.00096,0.00094,0.00012,0.0066,0.0215,9.817
1771240866.3427663,-0.00149,0.00264,0.00023,0.0248,0.0199,9.7926
1771240866.4001677,-0.0003,0.00081,-0.00023,0.0078,0.02,9.8065
1771240866.4429243,0.00027,-0.00102,-0.00074,0.0103,0.0285,9.8223
1771240866.5053113,-0.00154,0.00346,0.00063,0.0156,0.0185,9.8166
1771240866.5422113,-0.00064,0.00094,0.00013,0.0112,0.016,9.816
1771240866.5925553,0.00064,-0.00207,-0.00059,0.0183,0.0232,9.8053
1771240866.6408916,0.00033,-0.00062,0.00064,0.0133,0.0236,9.8056
1771240866.6930788,-0.0002,-0.00037,0.00012,0.0131,0.0178,9.8229
1771240866.7412934,-0.00224,0.00198,0.00038,0.0112,0.012,9.8091
1771240866.7920177,0.00046,-0.00122,9e-05,0.0177,0.0257,9.8042
1771240866.8455024,-5e-05,0.00081,-3e-05,0.0107,0.0225,9.8085
1771240866.8944573,0.00085,-0.00036,-4e-05,0.017,0.0185,9.8239
1771240866.9506512,0.00042,-0.00117,0.00013,-0.0008,0.0345,9.7962
1771240866.9919329,0.00145,-0.00325,5e-05,0.0023,0.0119,9.8108
1771240867.041457,0.00057,0.00089,0.0004,0.0296,0.0252,9.7908
1771240867.09109,0.00095,0.00059,0.00026,0.011,0.0227,9.8006
1771240867.1438177,0.00142,0.00028,-0.00017,0.0066,0.0259,9.7912
1771240867.191432,-0.00014,-0.00323,-0.00089,0.0073,0.0088,9.8011
1771240867.240895,-0.0014,0.00373,0.00033,0.0167,0.0173,9.8112
1771240867.291787,7e-05,0.00087,0.0001,0.0109,0.0319,9.793
1771240867.3409612,0.00072,-0.00075,-0.00049,0.0123,0.0108,9.8121
1771240867.393211,0.00024,0.00223,-0.0,0.0074,0.023,9.7988
1771240867.4418018,0.00096,-0.00165,5e-05,0.0139,0.0195,9.8033
1771240867.5021267,-0.00032,0.00257,0.00034,0.0129,0.0086,9.8145
1771240867.5443122,-0.00029,0.00048,0.00029,0.0091,0.0231,9.8257
1771240867.5925078,-0.00099,-0.00018,-0.00012,0.0199,0.0266,9.8053
1771240867.6434345,0.00038,-0.00089,-0.00016,0.0153,0.0312,9.803
1771240867.6936312,0.00043,-0.00115,-0.00016,0.0152,0.0115,9.8128
1771240867.7442226,0.00057,0.00016,0.00024,0.0039,0.0228,9.8062
1771240867.7945926,7e-05,0.00073,3e-05,0.0135,0.0207,9.8247
1771240867.8457818,-0.00052,0.00274,0.00011,0.0105,0.0153,9.8133
1771240867.8908582,-0.00104,0.00103,-0.00024,0.0097,0.03,9.8168
1771240867.941461,-0.00017,0.00227,0.0003,0.0121,0.0165,9.8147
1771240867.9909902,-0.00017,0.00047,-0.00012,0.0096,0.019,9.7947
1771240868.0427802,-0.00065,-0.00081,-0.00026,0.0105,0.0191,9.811
1771240868.0943394,0.00071,0.00011,-3e-05,0.0158,0.0248,9.8095
1771240868.1432014,0.00047,-0.00109,-0.00032,0.0173,0.015,9.8243
1771240868.191852,-0.00061,0.00151,0.00036,0.0028,0.0195,9.8155
1771240868.2433968,0.00027,-0.00145,0.00014,0.012,0.018,9.8164
1771240868.2943616,-1e-05,0.00048,0.00031,0.0062,0.0192,9.7819
1771240868.3473194,0.00162,-0.00205,-0.00025,0.0125,0.009,9.8095
1771240868.391072,-0.00052,-0.00016,0.00024,0.0222,0.0296,9.8299
1771240868.4523618,9e-05,-0.0013,7e-05,0.0019,0.008,9.8099
1771240868.4907057,0.0005,-0.00101,-0.00047,0.0199,0.0179,9.7979
1771240868.550162,0.00078,0.00093,-6e-05,0.0152,0.0202,9.8293
1771240868.5908556,0.00125,-0.00028,0.00034,0.006,0.017,9.821
1771240868.6418092,0.00129,-0.00167,0.00014,0.0006,0.0287,9.7995
1771240868.6979747,0.00084,-0.00277,-0.00035,0.0143,0.0102,9.7978
1771240868.7480366,-0.00098,0.00218,0.00068,0.0151,0.0196,9.8204
1771240868.792359,0.00055,-0.00203,-0.0004,0.0175,0.0215,9.8155
1771240868.843635,-5e-05,0.00089,-2e-05,0.0192,0.0251,9.8048
1771240868.891068,0.00032,0.00577,0.00082,0.0082,0.0329,9.8092
1771240868.943268,0.00025,0.00127,0.00032,0.0066,0.0219,9.8062
1771240868.991399,0.0008,-0.00129,-0.00012,0.0088,0.0073,9.7967
